Folder: ectools/testing/cyclic_data

Note: README.md
# ectools
Importing, plotting and working with electrochemistry data

TODO:
* more meta parsing
* scan direction column (red/ox or better naming convension)
* improve plotting
    * "last" cycle
* integration tool

File: 1_LOOP_CHRONOA_#2.DTA
EXPLAIN
TAG	CHRONOA
TITLE	LABEL	Chronoamperometry Scan	Test Identifier
DATE	LABEL	5/12/2025	Date
TIME	LABEL	13:06:58	Time
NOTES	NOTES	1	Notes...

PSTAT	PSTAT	REF3000-48128	Potentiostat
VPRESTEP	POTEN	0.00000E+000	F	Pre-step Voltage (V)
TPRESTEP	QUANT	0.00000E+000	Pre-step Delay Time (s)
VSTEP1	POTEN	5.00000E-001	F	Step 1 Voltage (V)
TSTEP1	QUANT	2.00000E+001	Step 1 Time (s)
VSTEP2	POTEN	0.00000E+000	F	Step 2 Voltage (V)
TSTEP2	QUANT	0.00000E+000	Step 2 Time (s)
SAMPLETIME	QUANT	1.00000E-002	Sample Period (s)
DECIMATE	TOGGLE	F	Decimate
ILIMIT	QUANT	1.00000E+001	Limit I (mA/cm^2)
IMODE	SELECTOR	0	I/E Range Mode
IRANGE	QUANT	3.00000E-001	Max Current (mA)
EQDELAY	QUANT	0.00000E+000	Equil. Time (s)
SAMPLINGMODE	SELECTOR	1	Sampling Mode
AREA	QUANT	1.00000E+000	Sample Area (cm^2)
IRCOMP	SELECTOR	0	IRComp
PFCOR	QUANT	5.00000E+001	PF Corr. (ohm)
ELECTRODETYPE	SELECTOR	0	Electrode Type
STRIPPING	TOGGLE	F	Used for Stripping
SEQUENCER	TOGGLE	TRUE	Run as Sequence
PSTATMODEL	IQUANT	5	Pstat Model
PSTATSECTION	LABEL	REF3000-48128	Pstat Section
PSTATSERIALNO	LABEL	48128	Pstat Serial Number
CTRLMODE	IQUANT	1	Control Mode
ELECTROMETER	IQUANT	0	RE=0 or CS=1
IESTAB	IQUANT	0	I/E Stability
CASPEED	IQUANT	4	Control Amp Speed
CONVENTION	IQUANT	1	Current Convention
ICHRANGE	IQUANT	2	Ich Range
ICHRANGEMODE	TOGGLE	T	Ich Auto Range
ICHOFFSETENABLE	TOGGLE	F	Ich Offset Enable
ICHOFFSET	QUANT	0	Ich Offset (V)
ICHFILTER	IQUANT	2	Ich Filter
VCHRANGE	IQUANT	2	Vch Range
VCHRANGEMODE	TOGGLE	F	Vch Auto Range
VCHOFFSETENABLE	TOGGLE	F	Vch Offset Enable
VCHOFFSET	QUANT	0	Vch Offset (V)
VCHFILTER	IQUANT	2	Vch Filter
ACHRANGE	IQUANT	2	Ach Range
ACHOFFSETENABLE	TOGGLE	F	Ach Offset Enable
ACHOFFSET	QUANT	0	Ach Offset (V)
ACHFILTER	IQUANT	1	Ach Filter
IERANGELOWERLIMIT	IQUANT	2	I/E Range Lower Limit
IERANGEMODE	TOGGLE	T	I/E AutoRange
IERANGE	IQUANT	9	I/E Range
POSFEEDENABLE	TOGGLE	F	Positive Feedback IR Comp
POSFEEDRESISTANCE	QUANT	0	Positive Feedback Resistance (ohm)
ACHSELECT	IQUANT	0	Ach Select
SENSECABLEID	IQUANT	14	Sense Cable ID
PWRCABLEID	IQUANT	7	Power Cable ID
DCCALDATE	LABEL	1/13/2025	DC Calibration Date
ACCALDATE	LABEL	8/16/2024	AC Calibration Date
THERMOSELECT	IQUANT	1	Thermo Select
FRAMEWORKVERSION	LABEL	7.10.3	Framework Version
INSTRUMENTVERSION	LABEL	4.91	Instrument Version
COMMVERSION	LABEL	5.10	Communications Version
CPUPLDVERSION	LABEL	6.00	CPU PLD Version
CTRLPLDVERSION	LABEL	3.21	CTRL PLD Version
PSTATPLDVERSION	LABEL	0.00	PSTAT PLD Version
COMPLIANCEVOLTAGE	IQUANT	0	Compliance Voltage
CURVE	TABLE	2001
	Pt	T	Vf	Im	Vu	Sig	Ach	IERange	Over	Temp
	#	s	V vs. Ref.	A	V	V	V	#	bits	deg C
	0	0	-3.18008E-006	1.57962E-007	0.00000E+000	0.00000E+000	-9.43109E-004	9	...........	-327.56
	20	0.2	4.99221E-001	2.49853E-004	0.00000E+000	5.00000E-001	-9.16443E-004	8	...........	-327.56
	40	0.4	4.99220E-001	2.49851E-004	0.00000E+000	5.00000E-001	-9.24776E-004	8	...........	-327.56
	60	0.6	4.99224E-001	2.49851E-004	0.00000E+000	5.00000E-001	-9.18109E-004	8	...........	-327.56
	80	0.8	4.99216E-001	2.49851E-004	0.00000E+000	5.00000E-001	-8.98109E-004	8	...........	-327.56
	100	1	4.99217E-001	2.49852E-004	0.00000E+000	5.00000E-001	-9.14776E-004	8	...........	-327.56
	120	1.2	4.99213E-001	2.49852E-004	0.00000E+000	5.00000E-001	-9.13109E-004	8	...........	-327.56
	140	1.4	4.99225E-001	2.49848E-004	0.00000E+000	5.00000E-001	-9.31443E-004	8	...........	-327.56
	160	1.6	4.99220E-001	2.49846E-004	0.00000E+000	5.00000E-001	-9.28109E-004	8	...........	-327.56
	180	1.8	4.99219E-001	2.49855E-004	0.00000E+000	5.00000E-001	-9.04776E-004	8	...........	-327.56
	200	2	4.99211E-001	2.49852E-004	0.00000E+000	5.00000E-001	-9.13109E-004	8	...........	-327.56
	220	2.2	4.99231E-001	2.49854E-004	0.00000E+000	5.00000E-001	-9.14776E-004	8	...........	-327.56
	240	2.4	4.99223E-001	2.49848E-004	0.00000E+000	5.00000E-001	-9.01442E-004	8	...........	-327.56
	260	2.6	4.99227E-001	2.49849E-004	0.00000E+000	5.00000E-001	-8.99776E-004	8	...........	-327.56
	280	2.8	4.99215E-001	2.49847E-004	0.00000E+000	5.00000E-001	-9.28109E-004	8	...........	-327.56
	300	3	4.99216E-001	2.49850E-004	0.00000E+000	5.00000E-001	-9.23109E-004	8	...........	-327.56
	320	3.2	4.99229E-001	2.49846E-004	0.00000E+000	5.00000E-001	-9.29776E-004	8	...........	-327.56
	340	3.4	4.99232E-001	2.49850E-004	0.00000E+000	5.00000E-001	-9.23109E-004	8	...........	-327.56
	360	3.6	4.99221E-001	2.49847E-004	0.00000E+000	5.00000E-001	-9.23109E-004	8	...........	-327.56
	380	3.8	4.99227E-001	2.49852E-004	0.00000E+000	5.00000E-001	-9.41443E-004	8	...........	-327.56
	400	4	4.99216E-001	2.49850E-004	0.00000E+000	5.00000E-001	-8.99776E-004	8	...........	-327.56
	420	4.2	4.99212E-001	2.49853E-004	0.00000E+000	5.00000E-001	-9.06443E-004	8	...........	-327.56
	440	4.4	4.99224E-001	2.49849E-004	0.00000E+000	5.00000E-001	-9.24776E-004	8	...........	-327.56
	460	4.6	4.99225E-001	2.49854E-004	0.00000E+000	5.00000E-001	-9.24776E-004	8	...........	-327.56
	480	4.8	4.99213E-001	2.49851E-004	0.00000E+000	5.00000E-001	-9.21443E-004	8	...........	-327.56
	500	5	4.99219E-001	2.49846E-004	0.00000E+000	5.00000E-001	-9.34776E-004	8	...........	-327.56
	520	5.2	4.99222E-001	2.49851E-004	0.00000E+000	5.00000E-001	-9.29776E-004	8	...........	-327.56
	540	5.4	4.99222E-001	2.49851E-004	0.00000E+000	5.00000E-001	-9.16443E-004	8	...........	-327.56
	560	5.6	4.99229E-001	2.49852E-004	0.00000E+000	5.00000E-001	-9.11443E-004	8	...........	-327.56
	580	5.8	4.99215E-001	2.49849E-004	0.00000E+000	5.00000E-001	-9.09776E-004	8	...........	-327.56
	600	6	4.99216E-001	2.49850E-004	0.00000E+000	5.00000E-001	-9.21443E-004	8	...........	-327.56
	620	6.2	4.99232E-001	2.49853E-004	0.00000E+000	5.00000E-001	-9.19776E-004	8	...........	-327.56
	640	6.4	4.99219E-001	2.49853E-004	0.00000E+000	5.00000E-001	-9.36443E-004	8	...........	-327.56
	660	6.6	4.99224E-001	2.49849E-004	0.00000E+000	5.00000E-001	-9.11443E-004	8	...........	-327.56
	680	6.8	4.99213E-001	2.49850E-004	0.00000E+000	5.00000E-001	-9.16443E-004	8	...........	-327.56
	700	7	4.99220E-001	2.49851E-004	0.00000E+000	5.00000E-001	-9.33109E-004	8	...........	-327.56
	720	7.2	4.99214E-001	2.49852E-004	0.00000E+000	5.00000E-001	-9.19776E-004	8	...........	-327.56
	740	7.4	4.99221E-001	2.49851E-004	0.00000E+000	5.00000E-001	-9.18109E-004	8	...........	-327.56
	760	7.6	4.99212E-001	2.49852E-004	0.00000E+000	5.00000E-001	-9.11443E-004	8	...........	-327.56
	780	7.8	4.99233E-001	2.49858E-004	0.00000E+000	5.00000E-001	-9.28109E-004	8	...........	-327.56
	800	8	4.99227E-001	2.49857E-004	0.00000E+000	5.00000E-001	-8.93109E-004	8	...........	-327.56
	820	8.2	4.99220E-001	2.49856E-004	0.00000E+000	5.00000E-001	-8.98109E-004	8	...........	-327.56
	840	8.4	4.99221E-001	2.49856E-004	0.00000E+000	5.00000E-001	-9.16443E-004	8	...........	-327.56
	860	8.6	4.99214E-001	2.49851E-004	0.00000E+000	5.00000E-001	-9.13109E-004	8	...........	-327.56
	880	8.8	4.99230E-001	2.49848E-004	0.00000E+000	5.00000E-001	-9.26443E-004	8	...........	-327.56
	900	9	4.99212E-001	2.49853E-004	0.00000E+000	5.00000E-001	-9.31443E-004	8	...........	-327.56
	920	9.2	4.99214E-001	2.49854E-004	0.00000E+000	5.00000E-001	-9.04776E-004	8	...........	-327.56
	940	9.4	4.99207E-001	2.49854E-004	0.00000E+000	5.00000E-001	-9.13109E-004	8	...........	-327.56
	960	9.6	4.99232E-001	2.49852E-004	0.00000E+000	5.00000E-001	-9.11443E-004	8	...........	-327.56
	980	9.8	4.99220E-001	2.49857E-004	0.00000E+000	5.00000E-001	-9.14776E-004	8	...........	-327.56
	1000	10	4.99214E-001	2.49850E-004	0.00000E+000	5.00000E-001	-9.11443E-004	8	...........	-327.56
	1020	10.2	4.99219E-001	2.49853E-004	0.00000E+000	5.00000E-001	-9.19776E-004	8	...........	-327.56
	1040	10.4	4.99216E-001	2.49850E-004	0.00000E+000	5.00000E-001	-9.03109E-004	8	...........	-327.56
	1060	10.6	4.99207E-001	2.49851E-004	0.00000E+000	5.00000E-001	-9.06443E-004	8	...........	-327.56
	1080	10.8	4.99219E-001	2.49858E-004	0.00000E+000	5.00000E-001	-8.96443E-004	8	...........	-327.56
	1100	11	4.99223E-001	2.49852E-004	0.00000E+000	5.00000E-001	-9.18109E-004	8	...........	-327.56
	1120	11.2	4.99216E-001	2.49853E-004	0.00000E+000	5.00000E-001	-9.23109E-004	8	...........	-327.56
	1140	11.4	4.99207E-001	2.49855E-004	0.00000E+000	5.00000E-001	-9.08109E-004	8	...........	-327.56
	1160	11.6	4.99232E-001	2.49853E-004	0.00000E+000	5.00000E-001	-9.21443E-004	8	...........	-327.56
	1180	11.8	4.99212E-001	2.49850E-004	0.00000E+000	5.00000E-001	-9.21443E-004	8	...........	-327.56
	1200	12	4.99228E-001	2.49856E-004	0.00000E+000	5.00000E-001	-9.19776E-004	8	...........	-327.56
	1220	12.2	4.99218E-001	2.49855E-004	0.00000E+000	5.00000E-001	-9.31443E-004	8	...........	-327.56
	1240	12.4	4.99213E-001	2.49853E-004	0.00000E+000	5.00000E-001	-9.23109E-004	8	...........	-327.56
	1260	12.6	4.99243E-001	2.49854E-004	0.00000E+000	5.00000E-001	-9.09776E-004	8	...........	-327.56
	1280	12.8	4.99203E-001	2.49850E-004	0.00000E+000	5.00000E-001	-9.14776E-004	8	...........	-327.56
	1300	13	4.99217E-001	2.49850E-004	0.00000E+000	5.00000E-001	-9.23109E-004	8	...........	-327.56
	1320	13.2	4.99213E-001	2.49852E-004	0.00000E+000	5.00000E-001	-9.23109E-004	8	...........	-327.56
	1340	13.4	4.99205E-001	2.49849E-004	0.00000E+000	5.00000E-001	-9.06443E-004	8	...........	-327.56
	1360	13.6	4.99215E-001	2.49855E-004	0.00000E+000	5.00000E-001	-9.23109E-004	8	...........	-327.56
	1380	13.8	4.99216E-001	2.49855E-004	0.00000E+000	5.00000E-001	-9.13109E-004	8	...........	-327.56
	1400	14	4.99224E-001	2.49859E-004	0.00000E+000	5.00000E-001	-9.14776E-004	8	...........	-327.56
	1420	14.2	4.99204E-001	2.49855E-004	0.00000E+000	5.00000E-001	-9.24776E-004	8	...........	-327.56
	1440	14.4	4.99224E-001	2.49855E-004	0.00000E+000	5.00000E-001	-9.08109E-004	8	...........	-327.56
	1460	14.6	4.99208E-001	2.49859E-004	0.00000E+000	5.00000E-001	-9.21443E-004	8	...........	-327.56
	1480	14.8	4.99214E-001	2.49854E-004	0.00000E+000	5.00000E-001	-9.03109E-004	8	...........	-327.56
	1500	15	4.99224E-001	2.49857E-004	0.00000E+000	5.00000E-001	-9.14776E-004	8	...........	-327.56
	1520	15.2	4.99224E-001	2.49856E-004	0.00000E+000	5.00000E-001	-9.14776E-004	8	...........	-327.56
	1540	15.4	4.99212E-001	2.49857E-004	0.00000E+000	5.00000E-001	-9.16443E-004	8	...........	-327.56
	1560	15.6	4.99212E-001	2.49855E-004	0.00000E+000	5.00000E-001	-9.04776E-004	8	...........	-327.56
	1580	15.8	4.99232E-001	2.49861E-004	0.00000E+000	5.00000E-001	-9.13109E-004	8	...........	-327.56
	1600	16	4.99225E-001	2.49856E-004	0.00000E+000	5.00000E-001	-9.14776E-004	8	...........	-327.56
	1620	16.2	4.99202E-001	2.49856E-004	0.00000E+000	5.00000E-001	-9.19776E-004	8	...........	-327.56
	1640	16.4	4.99221E-001	2.49860E-004	0.00000E+000	5.00000E-001	-9.18109E-004	8	...........	-327.56
	1660	16.6	4.99216E-001	2.49859E-004	0.00000E+000	5.00000E-001	-9.19776E-004	8	...........	-327.56
	1680	16.8	4.99220E-001	2.49857E-004	0.00000E+000	5.00000E-001	-9.29776E-004	8	...........	-327.56
	1700	17	4.99211E-001	2.49858E-004	0.00000E+000	5.00000E-001	-9.24776E-004	8	...........	-327.56
	1720	17.2	4.99213E-001	2.49856E-004	0.00000E+000	5.00000E-001	-9.16443E-004	8	...........	-327.56
	1740	17.4	4.99216E-001	2.49856E-004	0.00000E+000	5.00000E-001	-9.38109E-004	8	...........	-327.56
	1760	17.6	4.99212E-001	2.49858E-004	0.00000E+000	5.00000E-001	-9.11443E-004	8	...........	-327.56
	1780	17.8	4.99219E-001	2.49858E-004	0.00000E+000	5.00000E-001	-9.38109E-004	8	...........	-327.56
	1800	18	4.99234E-001	2.49856E-004	0.00000E+000	5.00000E-001	-9.16443E-004	8	...........	-327.56
	1820	18.2	4.99213E-001	2.49856E-004	0.00000E+000	5.00000E-001	-9.28109E-004	8	...........	-327.56
	1840	18.4	4.99227E-001	2.49859E-004	0.00000E+000	5.00000E-001	-9.01442E-004	8	...........	-327.56
	1860	18.6	4.99212E-001	2.49858E-004	0.00000E+000	5.00000E-001	-9.08109E-004	8	...........	-327.56
	1880	18.8	4.99212E-001	2.49857E-004	0.00000E+000	5.00000E-001	-9.09776E-004	8	...........	-327.56
	1900	19	4.99216E-001	2.49855E-004	0.00000E+000	5.00000E-001	-9.23109E-004	8	...........	-327.56
	1920	19.2	4.99225E-001	2.49857E-004	0.00000E+000	5.00000E-001	-9.21443E-004	8	...........	-327.56
	1940	19.4	4.99212E-001	2.49858E-004	0.00000E+000	5.00000E-001	-9.06443E-004	8	...........	-327.56
	1960	19.6	4.99238E-001	2.49864E-004	0.00000E+000	5.00000E-001	-9.26443E-004	8	...........	-327.56
	1980	19.8	4.99216E-001	2.49862E-004	0.00000E+000	5.00000E-001	-9.13109E-004	8	...........	-327.56
	2000	20	4.99208E-001	2.49859E-004	0.00000E+000	5.00000E-001	-9.11443E-004	8	...........	-327.56