Folder: ectools/testing/data (part 6)

File: 240902_09_MCL13_cswWE_CV2_750C_CO2.DTA
EXPLAIN
TAG	CV
TITLE	LABEL	Cyclic Voltammetry	Test Identifier
DATE	LABEL	9/3/2024	Date
TIME	LABEL	2:10:46	Time
NOTES	NOTES	5	Notes...
	cswWE - carbon steel wire
cspWE - carbon steel plate 2x2 tapered

Carbon steel plate counter electrode
Carbon steel wire reference electrode
PSTAT	PSTAT	REF3000-48128	Potentiostat
VINIT	POTEN	0.00000E+000	T	Initial E (V)
VLIMIT1	POTEN	1.70000E+000	F	Scan Limit 1 (V)
VLIMIT2	POTEN	-9.00000E-001	F	Scan Limit 2 (V)
VFINAL	POTEN	1.70000E+000	F	Final E (V)
SCANRATE	QUANT	2.00000E+000	Scan Rate (mV/s)
STEPSIZE	QUANT	1.00000E+000	Step Size (mV)
CYCLES	IQUANT	2	Cycles (#)
IMODE	SELECTOR	0	I/E Range Mode
IRANGE	QUANT	3.00000E-001	Max Current (mA)
AREA	QUANT	1.00000E+000	Sample Area (cm^2)
EQDELAY	QUANT	0.00000E+000	Equil. Time (s)
IRCOMP	SELECTOR	0	IRComp
PFCOR	QUANT	5.00000E+001	PF Corr. (ohm)
SAMPLINGMODE	SELECTOR	1	Sampling Mode
EOC	QUANT	0.1603511	Open Circuit (V)
ELECTRODETYPE	SELECTOR	0	Electrode Type
STRIPPING	TOGGLE	F	Used for Stripping
SEQUENCER	TOGGLE	TRUE	Run as Sequence
PSTATMODEL	IQUANT	5	Pstat Model
PSTATSECTION	LABEL	REF3000-48128	Pstat Section
PSTATSERIALNO	LABEL	48128	Pstat Serial Number
CTRLMODE	IQUANT	1	Control Mode
ELECTROMETER	IQUANT	0	RE=0 or CS=1
IESTAB	IQUANT	2	I/E Stability
CASPEED	IQUANT	4	Control Amp Speed
CONVENTION	IQUANT	1	Current Convention
ICHRANGE	IQUANT	2	Ich Range
ICHRANGEMODE	TOGGLE	F	Ich Auto Range
ICHOFFSETENABLE	TOGGLE	F	Ich Offset Enable
ICHOFFSET	QUANT	0	Ich Offset (V)
ICHFILTER	IQUANT	3	Ich Filter
VCHRANGE	IQUANT	2	Vch Range
VCHRANGEMODE	TOGGLE	F	Vch Auto Range
VCHOFFSETENABLE	TOGGLE	F	Vch Offset Enable
VCHOFFSET	QUANT	0	Vch Offset (V)
VCHFILTER	IQUANT	3	Vch Filter
ACHRANGE	IQUANT	2	Ach Range
ACHOFFSETENABLE	TOGGLE	F	Ach Offset Enable
ACHOFFSET	QUANT	0	Ach Offset (V)
ACHFILTER	IQUANT	1	Ach Filter
IERANGELOWERLIMIT	IQUANT	2	I/E Range Lower Limit
IERANGEMODE	TOGGLE	T	I/E AutoRange
IERANGE	IQUANT	9	I/E Range
POSFEEDENABLE	TOGGLE	F	Positive Feedback IR Comp
POSFEEDRESISTANCE	QUANT	0	Positive Feedback Resistance (ohm)
ACHSELECT	IQUANT	4	Ach Select
SENSECABLEID	IQUANT	14	Sense Cable ID
PWRCABLEID	IQUANT	7	Power Cable ID
DCCALDATE	LABEL	8/16/2024	DC Calibration Date
ACCALDATE	LABEL	8/16/2024	AC Calibration Date
THERMOSELECT	IQUANT	1	Thermo Select
FRAMEWORKVERSION	LABEL	7.10.3	Framework Version
INSTRUMENTVERSION	LABEL	4.91	Instrument Version
COMMVERSION	LABEL	5.10	Communications Version
CPUPLDVERSION	LABEL	6.00	CPU PLD Version
CTRLPLDVERSION	LABEL	3.21	CTRL PLD Version
PSTATPLDVERSION	LABEL	0.00	PSTAT PLD Version
COMPLIANCEVOLTAGE	IQUANT	0	Compliance Voltage
CURVE1	TABLE
	Pt	T	Vf	Im	Vu	Sig	Ach	IERange	Over	Temp
	#	s	V vs. Ref.	A	V	V	V	#	bits	deg C
	0	0.5	1.60050E-001	5.19932E-004	0.00000E+000	1.60350E-001	-9.18214E-005	9	...........	-327.56
	42	21.5	2.01919E-001	1.02292E-002	0.00000E+000	2.02350E-001	-9.25881E-005	10	...........	-327.56
	84	42.5	2.43745E-001	1.79366E-002	0.00000E+000	2.44350E-001	-9.92214E-005	10	...........	-327.56
	126	63.5	2.85704E-001	2.50190E-002	0.00000E+000	2.86350E-001	-1.03121E-004	10	...........	-327.56
	168	84.5	3.27897E-001	3.40359E-002	0.00000E+000	3.28350E-001	-1.08655E-004	11	...........	-327.56
	210	105.5	3.69886E-001	2.72006E-002	0.00000E+000	3.70350E-001	-1.05321E-004	11	...........	-327.56
	252	126.5	4.11650E-001	1.77614E-002	0.00000E+000	4.12350E-001	-1.02588E-004	10	...........	-327.56
	294	147.5	4.53613E-001	1.62144E-002	0.00000E+000	4.54350E-001	-1.01821E-004	10	...........	-327.56
	336	168.5	4.95628E-001	1.71611E-002	0.00000E+000	4.96350E-001	-1.03355E-004	10	...........	-327.56
	378	189.5	5.37536E-001	1.73393E-002	0.00000E+000	5.38350E-001	-1.01455E-004	10	...........	-327.56
	420	210.5	5.79470E-001	1.72295E-002	0.00000E+000	5.80350E-001	-1.02321E-004	10	...........	-327.56
	462	231.5	6.21499E-001	1.72827E-002	0.00000E+000	6.22350E-001	-9.87548E-005	10	...........	-327.56
	504	252.5	6.63443E-001	1.67773E-002	0.00000E+000	6.64350E-001	-1.01821E-004	10	...........	-327.56
	546	273.5	7.05440E-001	1.67215E-002	0.00000E+000	7.06350E-001	-1.03188E-004	10	...........	-327.56
	588	294.5	7.47392E-001	1.63440E-002	0.00000E+000	7.48350E-001	-1.00621E-004	10	...........	-327.56
	630	315.5	7.89317E-001	1.56810E-002	0.00000E+000	7.90350E-001	-1.01721E-004	10	...........	-327.56
	672	336.5	8.31291E-001	1.49931E-002	0.00000E+000	8.32350E-001	-1.02788E-004	10	...........	-327.56
	714	357.5	8.73277E-001	1.45997E-002	0.00000E+000	8.74350E-001	-1.03088E-004	10	...........	-327.56
	756	378.5	9.15180E-001	1.50611E-002	0.00000E+000	9.16350E-001	-1.02488E-004	10	...........	-327.56
	798	399.5	9.57166E-001	1.77940E-002	0.00000E+000	9.58350E-001	-9.96214E-005	10	...........	-327.56
	840	420.5	9.99023E-001	2.39579E-002	0.00000E+000	1.00035E+000	-9.52881E-005	10	...........	-327.56
	882	441.5	1.04119E+000	3.25418E-002	0.00000E+000	1.04235E+000	-1.02621E-004	11	...........	-327.56
	924	462.5	1.08322E+000	4.04633E-002	0.00000E+000	1.08435E+000	-1.03388E-004	11	...........	-327.56
	966	483.5	1.12516E+000	4.15062E-002	0.00000E+000	1.12635E+000	-1.01321E-004	11	...........	-327.56
	1008	504.5	1.16707E+000	3.29594E-002	0.00000E+000	1.16835E+000	-1.03788E-004	11	...........	-327.56
	1050	525.5	1.20908E+000	4.31580E-002	0.00000E+000	1.21035E+000	-1.00921E-004	11	...........	-327.56
	1092	546.5	1.25100E+000	6.87829E-002	0.00000E+000	1.25235E+000	-1.04455E-004	11	...........	-327.56
	1134	567.5	1.29289E+000	1.09500E-001	0.00000E+000	1.29435E+000	-9.93881E-005	11	...........	-327.56
	1176	588.5	1.33472E+000	1.84461E-001	0.00000E+000	1.33635E+000	-9.61214E-005	11	...........	-327.56
	1218	609.5	1.37678E+000	2.72107E-001	0.00000E+000	1.37835E+000	-1.03288E-004	12	...........	-327.56
	1260	630.5	1.41874E+000	3.67130E-001	0.00000E+000	1.42035E+000	-1.01788E-004	12	...........	-327.56
	1302	651.5	1.46066E+000	4.47012E-001	0.00000E+000	1.46235E+000	-1.05421E-004	12	...........	-327.56
	1344	672.5	1.50251E+000	5.50202E-001	0.00000E+000	1.50435E+000	-1.00555E-004	12	...........	-327.56
	1386	693.5	1.54443E+000	6.68923E-001	0.00000E+000	1.54635E+000	-1.04721E-004	12	...........	-327.56
	1428	714.5	1.58628E+000	7.88199E-001	0.00000E+000	1.58835E+000	-9.95214E-005	12	...........	-327.56
	1470	735.5	1.62817E+000	9.01831E-001	0.00000E+000	1.63035E+000	-1.07855E-004	12	...........	-327.56
	1512	756.5	1.67011E+000	1.03407E+000	0.00000E+000	1.67235E+000	-1.03221E-004	12	...........	-327.56
	1554	777.5	1.68400E+000	1.10022E+000	0.00000E+000	1.68635E+000	-1.01955E-004	12	...........	-327.56
	1596	798.5	1.64213E+000	1.00312E+000	0.00000E+000	1.64435E+000	-9.98214E-005	12	...........	-327.56
	1638	819.5	1.60018E+000	9.19726E-001	0.00000E+000	1.60235E+000	-1.01821E-004	12	...........	-327.56
	1680	840.5	1.55832E+000	8.19905E-001	0.00000E+000	1.56035E+000	-9.84214E-005	12	...........	-327.56
	1722	861.5	1.51645E+000	7.28185E-001	0.00000E+000	1.51835E+000	-1.01855E-004	12	...........	-327.56
	1764	882.5	1.47447E+000	6.26228E-001	0.00000E+000	1.47635E+000	-1.02788E-004	12	...........	-327.56
	1806	903.5	1.43260E+000	5.36611E-001	0.00000E+000	1.43435E+000	-1.01755E-004	12	...........	-327.56
	1848	924.5	1.39075E+000	4.43531E-001	0.00000E+000	1.39235E+000	-1.00988E-004	12	...........	-327.56
	1890	945.5	1.34876E+000	3.58336E-001	0.00000E+000	1.35035E+000	-1.05155E-004	12	...........	-327.56
[...]
	11042	5521.5	8.01145E-001	3.88185E-002	0.00000E+000	8.02000E-001	-1.08688E-004	11	...........	-327.56
	11069	5535	8.28092E-001	3.79699E-002	0.00000E+000	8.29000E-001	-1.09921E-004	11	...........	-327.56
	11096	5548.5	8.55082E-001	3.66273E-002	0.00000E+000	8.56000E-001	-1.02521E-004	11	...........	-327.56
	11123	5562	8.82075E-001	3.51380E-002	0.00000E+000	8.83000E-001	-1.02621E-004	11	...........	-327.56
	11150	5575.5	9.08981E-001	3.36190E-002	0.00000E+000	9.10000E-001	-1.06488E-004	11	...........	-327.56
	11177	5589	9.35940E-001	3.21621E-002	0.00000E+000	9.37000E-001	-1.05855E-004	11	...........	-327.56
	11204	5602.5	9.62974E-001	3.16907E-002	0.00000E+000	9.64000E-001	-1.08755E-004	11	...........	-327.56
	11231	5616	9.89903E-001	3.21653E-002	0.00000E+000	9.91000E-001	-1.06255E-004	11	...........	-327.56
	11258	5629.5	1.01688E+000	3.50245E-002	0.00000E+000	1.01800E+000	-1.04455E-004	11	...........	-327.56
	11285	5643	1.04384E+000	3.87531E-002	0.00000E+000	1.04500E+000	-1.00155E-004	11	...........	-327.56
	11312	5656.5	1.07083E+000	4.33025E-002	0.00000E+000	1.07200E+000	-1.06955E-004	11	...........	-327.56
	11339	5670	1.09782E+000	4.73615E-002	0.00000E+000	1.09900E+000	-1.02188E-004	11	...........	-327.56
	11366	5683.5	1.12477E+000	5.09208E-002	0.00000E+000	1.12600E+000	-1.03655E-004	11	...........	-327.56
	11393	5697	1.15174E+000	5.31493E-002	0.00000E+000	1.15300E+000	-1.04321E-004	11	...........	-327.56
	11420	5710.5	1.17873E+000	4.90644E-002	0.00000E+000	1.18000E+000	-1.06155E-004	11	...........	-327.56
	11447	5724	1.20574E+000	4.30894E-002	0.00000E+000	1.20700E+000	-1.12655E-004	11	...........	-327.56
	11474	5737.5	1.23271E+000	5.05977E-002	0.00000E+000	1.23400E+000	-1.00955E-004	11	...........	-327.56
	11501	5751	1.25966E+000	7.21350E-002	0.00000E+000	1.26100E+000	-1.04188E-004	11	...........	-327.56
	11528	5764.5	1.28659E+000	1.05867E-001	0.00000E+000	1.28800E+000	-1.04821E-004	11	...........	-327.56
	11555	5778	1.31352E+000	1.44712E-001	0.00000E+000	1.31500E+000	-1.05121E-004	11	...........	-327.56
	11582	5791.5	1.34037E+000	1.89384E-001	0.00000E+000	1.34200E+000	-1.03221E-004	11	...........	-327.56
	11609	5805	1.36726E+000	2.39926E-001	0.00000E+000	1.36900E+000	-1.00921E-004	11	...........	-327.56
	11636	5818.5	1.39447E+000	2.91032E-001	0.00000E+000	1.39600E+000	-1.06755E-004	12	...........	-327.56
	11663	5832	1.42135E+000	3.42518E-001	0.00000E+000	1.42300E+000	-1.02155E-004	12	...........	-327.56
	11690	5845.5	1.44827E+000	3.96573E-001	0.00000E+000	1.45000E+000	-1.07355E-004	12	...........	-327.56
	11717	5859	1.47521E+000	4.56157E-001	0.00000E+000	1.47700E+000	-1.03055E-004	12	...........	-327.56
	11744	5872.5	1.50225E+000	5.25139E-001	0.00000E+000	1.50400E+000	-1.07421E-004	12	...........	-327.56
	11771	5886	1.52913E+000	6.00434E-001	0.00000E+000	1.53100E+000	-1.03921E-004	12	...........	-327.56
	11798	5899.5	1.55599E+000	6.80798E-001	0.00000E+000	1.55800E+000	-1.04388E-004	12	...........	-327.56
	11825	5913	1.58297E+000	7.61667E-001	0.00000E+000	1.58500E+000	-1.02888E-004	12	...........	-327.56
	11852	5926.5	1.60990E+000	8.29022E-001	0.00000E+000	1.61200E+000	-1.06288E-004	12	...........	-327.56
	11879	5940	1.63681E+000	9.04954E-001	0.00000E+000	1.63900E+000	-1.06255E-004	12	...........	-327.56
	11906	5953.5	1.66377E+000	9.70624E-001	0.00000E+000	1.66600E+000	-1.01588E-004	12	...........	-327.56
	11933	5967	1.69072E+000	1.05530E+000	0.00000E+000	1.69300E+000	-1.02921E-004	12	...........	-327.56
	11940	5970.5	1.69772E+000	1.07313E+000	0.00000E+000	1.70000E+000	-1.08921E-004	12	...........	-327.56

File: 240902_10_MCL13_cswWE_CV2_750C_CO2.DTA
EXPLAIN
TAG	CV
TITLE	LABEL	Cyclic Voltammetry	Test Identifier
DATE	LABEL	9/3/2024	Date
TIME	LABEL	3:51:18	Time
NOTES	NOTES	5	Notes...
	cswWE - carbon steel wire
cspWE - carbon steel plate 2x2 tapered

Carbon steel plate counter electrode
Carbon steel wire reference electrode
PSTAT	PSTAT	REF3000-48128	Potentiostat
VINIT	POTEN	0.00000E+000	T	Initial E (V)
VLIMIT1	POTEN	1.70000E+000	F	Scan Limit 1 (V)
VLIMIT2	POTEN	-7.00000E-001	F	Scan Limit 2 (V)
VFINAL	POTEN	1.70000E+000	F	Final E (V)
SCANRATE	QUANT	2.00000E+000	Scan Rate (mV/s)
STEPSIZE	QUANT	1.00000E+000	Step Size (mV)
CYCLES	IQUANT	2	Cycles (#)
IMODE	SELECTOR	0	I/E Range Mode
IRANGE	QUANT	3.00000E-001	Max Current (mA)
AREA	QUANT	1.00000E+000	Sample Area (cm^2)
EQDELAY	QUANT	0.00000E+000	Equil. Time (s)
IRCOMP	SELECTOR	0	IRComp
PFCOR	QUANT	5.00000E+001	PF Corr. (ohm)
SAMPLINGMODE	SELECTOR	1	Sampling Mode
EOC	QUANT	0.2158838	Open Circuit (V)
ELECTRODETYPE	SELECTOR	0	Electrode Type
STRIPPING	TOGGLE	F	Used for Stripping
SEQUENCER	TOGGLE	TRUE	Run as Sequence
PSTATMODEL	IQUANT	5	Pstat Model
PSTATSECTION	LABEL	REF3000-48128	Pstat Section
PSTATSERIALNO	LABEL	48128	Pstat Serial Number
CTRLMODE	IQUANT	1	Control Mode
ELECTROMETER	IQUANT	0	RE=0 or CS=1
IESTAB	IQUANT	2	I/E Stability
CASPEED	IQUANT	4	Control Amp Speed
CONVENTION	IQUANT	1	Current Convention
ICHRANGE	IQUANT	2	Ich Range
ICHRANGEMODE	TOGGLE	F	Ich Auto Range
ICHOFFSETENABLE	TOGGLE	F	Ich Offset Enable
ICHOFFSET	QUANT	0	Ich Offset (V)
ICHFILTER	IQUANT	3	Ich Filter
VCHRANGE	IQUANT	2	Vch Range
VCHRANGEMODE	TOGGLE	F	Vch Auto Range
VCHOFFSETENABLE	TOGGLE	F	Vch Offset Enable
VCHOFFSET	QUANT	0	Vch Offset (V)
VCHFILTER	IQUANT	3	Vch Filter
ACHRANGE	IQUANT	2	Ach Range
ACHOFFSETENABLE	TOGGLE	F	Ach Offset Enable
ACHOFFSET	QUANT	0	Ach Offset (V)
ACHFILTER	IQUANT	1	Ach Filter
IERANGELOWERLIMIT	IQUANT	2	I/E Range Lower Limit
IERANGEMODE	TOGGLE	T	I/E AutoRange
IERANGE	IQUANT	9	I/E Range
POSFEEDENABLE	TOGGLE	F	Positive Feedback IR Comp
POSFEEDRESISTANCE	QUANT	0	Positive Feedback Resistance (ohm)
ACHSELECT	IQUANT	4	Ach Select
SENSECABLEID	IQUANT	14	Sense Cable ID
PWRCABLEID	IQUANT	7	Power Cable ID
DCCALDATE	LABEL	8/16/2024	DC Calibration Date
ACCALDATE	LABEL	8/16/2024	AC Calibration Date
THERMOSELECT	IQUANT	1	Thermo Select
FRAMEWORKVERSION	LABEL	7.10.3	Framework Version
INSTRUMENTVERSION	LABEL	4.91	Instrument Version
COMMVERSION	LABEL	5.10	Communications Version
CPUPLDVERSION	LABEL	6.00	CPU PLD Version
CTRLPLDVERSION	LABEL	3.21	CTRL PLD Version
PSTATPLDVERSION	LABEL	0.00	PSTAT PLD Version
COMPLIANCEVOLTAGE	IQUANT	0	Compliance Voltage
CURVE1	TABLE
	Pt	T	Vf	Im	Vu	Sig	Ach	IERange	Over	Temp
	#	s	V vs. Ref.	A	V	V	V	#	bits	deg C
	0	0.5	2.15347E-001	2.13050E-003	0.00000E+000	2.15900E-001	-9.53881E-005	9	...........	-327.56
	40	20.5	2.55384E-001	1.40683E-002	0.00000E+000	2.55900E-001	-9.42214E-005	10	...........	-327.56
	80	40.5	2.95264E-001	1.59062E-002	0.00000E+000	2.95900E-001	-1.08221E-004	10	...........	-327.56
	120	60.5	3.35297E-001	1.50184E-002	0.00000E+000	3.35900E-001	-1.04455E-004	10	...........	-327.56
	160	80.5	3.75244E-001	1.27537E-002	0.00000E+000	3.75900E-001	-1.03521E-004	10	...........	-327.56
	200	100.5	4.15293E-001	1.29367E-002	0.00000E+000	4.15900E-001	-1.04888E-004	10	...........	-327.56
	240	120.5	4.55193E-001	1.36459E-002	0.00000E+000	4.55900E-001	-1.03688E-004	10	...........	-327.56
	280	140.5	4.95231E-001	1.38367E-002	0.00000E+000	4.95900E-001	-1.03255E-004	10	...........	-327.56
	320	160.5	5.35103E-001	1.40081E-002	0.00000E+000	5.35900E-001	-1.00855E-004	10	...........	-327.56
	360	180.5	5.75112E-001	1.41304E-002	0.00000E+000	5.75900E-001	-9.99548E-005	10	...........	-327.56
	400	200.5	6.15057E-001	1.42943E-002	0.00000E+000	6.15900E-001	-9.70548E-005	10	...........	-327.56
	440	220.5	6.54998E-001	1.41893E-002	0.00000E+000	6.55900E-001	-1.00755E-004	10	...........	-327.56
	480	240.5	6.95034E-001	1.39585E-002	0.00000E+000	6.95900E-001	-1.02288E-004	10	...........	-327.56
	520	260.5	7.34916E-001	1.35582E-002	0.00000E+000	7.35900E-001	-1.05688E-004	10	...........	-327.56
	560	280.5	7.74979E-001	1.30458E-002	0.00000E+000	7.75900E-001	-1.00355E-004	10	...........	-327.56
	600	300.5	8.14893E-001	1.26497E-002	0.00000E+000	8.15900E-001	-1.02488E-004	10	...........	-327.56
	640	320.5	8.54885E-001	1.25602E-002	0.00000E+000	8.55900E-001	-1.05621E-004	10	...........	-327.56
	680	340.5	8.94787E-001	1.32239E-002	0.00000E+000	8.95900E-001	-1.01188E-004	10	...........	-327.56
	720	360.5	9.34657E-001	1.51362E-002	0.00000E+000	9.35900E-001	-1.00955E-004	10	...........	-327.56
	760	380.5	9.74641E-001	2.03662E-002	0.00000E+000	9.75900E-001	-1.02755E-004	10	...........	-327.56
	800	400.5	1.01478E+000	2.80835E-002	0.00000E+000	1.01590E+000	-1.00388E-004	11	...........	-327.56
	840	420.5	1.05479E+000	3.58045E-002	0.00000E+000	1.05590E+000	-1.01955E-004	11	...........	-327.56
	880	440.5	1.09470E+000	3.97847E-002	0.00000E+000	1.09590E+000	-1.02821E-004	11	...........	-327.56
	920	460.5	1.13471E+000	2.90989E-002	0.00000E+000	1.13590E+000	-1.03555E-004	11	...........	-327.56
	960	480.5	1.17466E+000	2.87551E-002	0.00000E+000	1.17590E+000	-1.01955E-004	11	...........	-327.56
	1000	500.5	1.21465E+000	4.27457E-002	0.00000E+000	1.21590E+000	-1.03688E-004	11	...........	-327.56
	1040	520.5	1.25456E+000	7.03911E-002	0.00000E+000	1.25590E+000	-1.01455E-004	11	...........	-327.56
	1080	540.5	1.29437E+000	1.15361E-001	0.00000E+000	1.29590E+000	-1.03188E-004	11	...........	-327.56
	1120	560.5	1.33430E+000	1.85794E-001	0.00000E+000	1.33590E+000	-1.02755E-004	11	...........	-327.56
	1160	580.5	1.37435E+000	2.73004E-001	0.00000E+000	1.37590E+000	-1.09288E-004	12	...........	-327.56
	1200	600.5	1.41433E+000	3.49871E-001	0.00000E+000	1.41590E+000	-1.02021E-004	12	...........	-327.56
	1240	620.5	1.45423E+000	4.30886E-001	0.00000E+000	1.45590E+000	-1.10621E-004	12	...........	-327.56
	1280	640.5	1.49416E+000	5.29825E-001	0.00000E+000	1.49590E+000	-1.02921E-004	12	...........	-327.56
	1320	660.5	1.53398E+000	6.54090E-001	0.00000E+000	1.53590E+000	-1.06888E-004	12	...........	-327.56
	1360	680.5	1.57388E+000	7.82720E-001	0.00000E+000	1.57590E+000	-1.03621E-004	12	...........	-327.56
	1400	700.5	1.61376E+000	8.97131E-001	0.00000E+000	1.61590E+000	-9.93214E-005	12	...........	-327.56
	1440	720.5	1.65360E+000	1.00841E+000	0.00000E+000	1.65590E+000	-1.03321E-004	12	...........	-327.56
	1480	740.5	1.69359E+000	1.11444E+000	0.00000E+000	1.69590E+000	-1.00255E-004	12	...........	-327.56
	1520	760.5	1.66161E+000	1.05243E+000	0.00000E+000	1.66390E+000	-1.02521E-004	12	...........	-327.56
	1560	780.5	1.62174E+000	9.67014E-001	0.00000E+000	1.62390E+000	-1.05621E-004	12	...........	-327.56
	1600	800.5	1.58179E+000	8.69494E-001	0.00000E+000	1.58390E+000	-1.06355E-004	12	...........	-327.56
	1640	820.5	1.54189E+000	7.76600E-001	0.00000E+000	1.54390E+000	-1.03788E-004	12	...........	-327.56
	1680	840.5	1.50197E+000	6.81128E-001	0.00000E+000	1.50390E+000	-1.04655E-004	12	...........	-327.56
	1720	860.5	1.46212E+000	5.89523E-001	0.00000E+000	1.46390E+000	-1.02688E-004	12	...........	-327.56
	1760	880.5	1.42221E+000	4.97174E-001	0.00000E+000	1.42390E+000	-1.05555E-004	12	...........	-327.56
	1800	900.5	1.38232E+000	4.06639E-001	0.00000E+000	1.38390E+000	-1.05988E-004	12	...........	-327.56
[...]
	10235	5118	8.50083E-001	3.25863E-002	0.00000E+000	8.51000E-001	-1.06555E-004	11	...........	-327.56
	10260	5130.5	8.75100E-001	3.13468E-002	0.00000E+000	8.76000E-001	-1.10721E-004	11	...........	-327.56
	10285	5143	9.00047E-001	3.01055E-002	0.00000E+000	9.01000E-001	-1.06588E-004	11	...........	-327.56
	10310	5155.5	9.24999E-001	2.88568E-002	0.00000E+000	9.26000E-001	-1.09655E-004	11	...........	-327.56
	10335	5168	9.49963E-001	2.76728E-002	0.00000E+000	9.51000E-001	-1.08955E-004	11	...........	-327.56
	10360	5180.5	9.74977E-001	2.66102E-002	0.00000E+000	9.76000E-001	-1.08688E-004	11	...........	-327.56
	10385	5193	9.99956E-001	2.62401E-002	0.00000E+000	1.00100E+000	-1.06755E-004	11	...........	-327.56
	10410	5205.5	1.02490E+000	2.77265E-002	0.00000E+000	1.02600E+000	-1.07288E-004	11	...........	-327.56
	10435	5218	1.04988E+000	3.10326E-002	0.00000E+000	1.05100E+000	-1.06888E-004	11	...........	-327.56
	10460	5230.5	1.07485E+000	3.55043E-002	0.00000E+000	1.07600E+000	-1.06321E-004	11	...........	-327.56
	10485	5243	1.09983E+000	4.09446E-002	0.00000E+000	1.10100E+000	-1.06221E-004	11	...........	-327.56
	10510	5255.5	1.12477E+000	4.80567E-002	0.00000E+000	1.12600E+000	-1.09021E-004	11	...........	-327.56
	10535	5268	1.14973E+000	5.43818E-002	0.00000E+000	1.15100E+000	-1.09888E-004	11	...........	-327.56
	10560	5280.5	1.17470E+000	6.18173E-002	0.00000E+000	1.17600E+000	-1.04321E-004	11	...........	-327.56
	10585	5293	1.19966E+000	7.16221E-002	0.00000E+000	1.20100E+000	-1.08055E-004	11	...........	-327.56
	10610	5305.5	1.22462E+000	8.54668E-002	0.00000E+000	1.22600E+000	-1.04988E-004	11	...........	-327.56
	10635	5318	1.24958E+000	1.02541E-001	0.00000E+000	1.25100E+000	-1.05021E-004	11	...........	-327.56
	10660	5330.5	1.27453E+000	1.28165E-001	0.00000E+000	1.27600E+000	-1.06488E-004	11	...........	-327.56
	10685	5343	1.29945E+000	1.58860E-001	0.00000E+000	1.30100E+000	-1.03388E-004	11	...........	-327.56
	10710	5355.5	1.32436E+000	1.96771E-001	0.00000E+000	1.32600E+000	-1.05388E-004	11	...........	-327.56
	10735	5368	1.34922E+000	2.38834E-001	0.00000E+000	1.35100E+000	-1.02421E-004	11	...........	-327.56
	10760	5380.5	1.37442E+000	2.87720E-001	0.00000E+000	1.37600E+000	-1.05855E-004	12	...........	-327.56
	10785	5393	1.39939E+000	3.37188E-001	0.00000E+000	1.40100E+000	-1.08555E-004	12	...........	-327.56
	10810	5405.5	1.42433E+000	3.96048E-001	0.00000E+000	1.42600E+000	-1.08355E-004	12	...........	-327.56
	10835	5418	1.44926E+000	4.41161E-001	0.00000E+000	1.45100E+000	-1.09521E-004	12	...........	-327.56
	10860	5430.5	1.47421E+000	4.98019E-001	0.00000E+000	1.47600E+000	-1.11621E-004	12	...........	-327.56
	10885	5443	1.49914E+000	5.61023E-001	0.00000E+000	1.50100E+000	-1.13955E-004	12	...........	-327.56
	10910	5455.5	1.52409E+000	6.20703E-001	0.00000E+000	1.52600E+000	-1.09721E-004	12	...........	-327.56
	10935	5468	1.54900E+000	6.90713E-001	0.00000E+000	1.55100E+000	-1.04688E-004	12	...........	-327.56
	10960	5480.5	1.57401E+000	7.44299E-001	0.00000E+000	1.57600E+000	-1.03688E-004	12	...........	-327.56
	10985	5493	1.59898E+000	8.00631E-001	0.00000E+000	1.60100E+000	-1.02755E-004	12	...........	-327.56
	11010	5505.5	1.62392E+000	8.59945E-001	0.00000E+000	1.62600E+000	-1.04688E-004	12	...........	-327.56
	11035	5518	1.64883E+000	9.16191E-001	0.00000E+000	1.65100E+000	-1.11288E-004	12	...........	-327.56
	11060	5530.5	1.67381E+000	9.70377E-001	0.00000E+000	1.67600E+000	-1.04455E-004	12	...........	-327.56
	11084	5542.5	1.69776E+000	1.03517E+000	0.00000E+000	1.70000E+000	-1.06755E-004	12	...........	-327.56