Folder: ectools/testing/data (part 14)

File: 240912_01_MCL16_CSWWE1_LSV100-INIT_CO2_750C.DTA
EXPLAIN
TAG	LSV
TITLE	LABEL	Linear Sweep Voltammetry	Test Identifier
DATE	LABEL	9/12/2024	Date
TIME	LABEL	15:40:48	Time
NOTES	NOTES	2	Notes...
	WE1 - double (looped) wire approx 30 mm depth
WE2 - carbon steel wire approx 10 mm depth
PSTAT	PSTAT	REF3000-48128	Potentiostat
VINIT	POTEN	0.00000E+000	T	Initial E (V)
VFINAL	POTEN	1.30000E+000	F	Final E (V)
SCANRATE	QUANT	9.99998E+001	Scan Rate (mV/s)
STEPSIZE	QUANT	1.00000E+000	Step Size (mV)
IMODE	SELECTOR	0	I/E Range Mode
IRANGE	QUANT	3.00000E-001	Max Current (mA)
AREA	QUANT	1.00000E+000	Sample Area (cm^2)
EQDELAY	QUANT	3.00000E+001	Equil. Time (s)
IRCOMP	SELECTOR	0	IRComp
PFCOR	QUANT	5.00000E+001	PF Corr. (ohm)
SAMPLINGMODE	SELECTOR	1	Sampling Mode
EOC	QUANT	0	Open Circuit (V)
ELECTRODETYPE	SELECTOR	0	Electrode Type
STRIPPING	TOGGLE	F	Used for Stripping
SEQUENCER	TOGGLE	TRUE	Run as Sequence
PSTATMODEL	IQUANT	5	Pstat Model
PSTATSECTION	LABEL	REF3000-48128	Pstat Section
PSTATSERIALNO	LABEL	48128	Pstat Serial Number
CTRLMODE	IQUANT	1	Control Mode
ELECTROMETER	IQUANT	0	RE=0 or CS=1
IESTAB	IQUANT	2	I/E Stability
CASPEED	IQUANT	4	Control Amp Speed
CONVENTION	IQUANT	1	Current Convention
ICHRANGE	IQUANT	2	Ich Range
ICHRANGEMODE	TOGGLE	F	Ich Auto Range
ICHOFFSETENABLE	TOGGLE	F	Ich Offset Enable
ICHOFFSET	QUANT	0	Ich Offset (V)
ICHFILTER	IQUANT	2	Ich Filter
VCHRANGE	IQUANT	2	Vch Range
VCHRANGEMODE	TOGGLE	F	Vch Auto Range
VCHOFFSETENABLE	TOGGLE	F	Vch Offset Enable
VCHOFFSET	QUANT	0	Vch Offset (V)
VCHFILTER	IQUANT	2	Vch Filter
ACHRANGE	IQUANT	2	Ach Range
ACHOFFSETENABLE	TOGGLE	F	Ach Offset Enable
ACHOFFSET	QUANT	0	Ach Offset (V)
ACHFILTER	IQUANT	1	Ach Filter
IERANGELOWERLIMIT	IQUANT	2	I/E Range Lower Limit
IERANGEMODE	TOGGLE	T	I/E AutoRange
IERANGE	IQUANT	9	I/E Range
POSFEEDENABLE	TOGGLE	F	Positive Feedback IR Comp
POSFEEDRESISTANCE	QUANT	0	Positive Feedback Resistance (ohm)
ACHSELECT	IQUANT	4	Ach Select
SENSECABLEID	IQUANT	14	Sense Cable ID
PWRCABLEID	IQUANT	7	Power Cable ID
DCCALDATE	LABEL	8/16/2024	DC Calibration Date
ACCALDATE	LABEL	8/16/2024	AC Calibration Date
THERMOSELECT	IQUANT	1	Thermo Select
FRAMEWORKVERSION	LABEL	7.10.3	Framework Version
INSTRUMENTVERSION	LABEL	4.91	Instrument Version
COMMVERSION	LABEL	5.10	Communications Version
CPUPLDVERSION	LABEL	6.00	CPU PLD Version
CTRLPLDVERSION	LABEL	3.21	CTRL PLD Version
PSTATPLDVERSION	LABEL	0.00	PSTAT PLD Version
COMPLIANCEVOLTAGE	IQUANT	0	Compliance Voltage
CURVE	TABLE	1301
	Pt	T	Vf	Im	Vu	Sig	Ach	IERange	Over	Cycle	Temp
	#	s	V vs. Ref.	A	V	V	V	#	bits	#	deg C
	0	0.01	2.19433E-005	1.72380E-004	0.00000E+000	5.96046E-008	-1.09555E-004	9	...........	0	-327.56
	14	0.15	1.36228E-002	1.50594E-003	0.00000E+000	1.40001E-002	-1.16221E-004	9	...........	0	-327.56
	28	0.29	2.76711E-002	2.30648E-003	0.00000E+000	2.80001E-002	-1.19555E-004	9	...........	0	-327.56
	42	0.43	4.18624E-002	3.06188E-003	0.00000E+000	4.20001E-002	-1.27888E-004	10	...........	0	-327.56
	56	0.57	5.59074E-002	3.77350E-003	0.00000E+000	5.60001E-002	-1.17888E-004	10	...........	0	-327.56
	70	0.71	6.98233E-002	4.51060E-003	0.00000E+000	7.00001E-002	-1.04555E-004	10	...........	0	-327.56
	84	0.85	8.38841E-002	5.29049E-003	0.00000E+000	8.40001E-002	-1.22888E-004	10	...........	0	-327.56
	98	0.99	9.78124E-002	6.13855E-003	0.00000E+000	9.80000E-002	-9.78881E-005	10	...........	0	-327.56
	112	1.13	1.11823E-001	7.07705E-003	0.00000E+000	1.12000E-001	-1.21221E-004	10	...........	0	-327.56
	126	1.27	1.25733E-001	8.11347E-003	0.00000E+000	1.26000E-001	-1.19555E-004	10	...........	0	-327.56
	140	1.41	1.39765E-001	9.27396E-003	0.00000E+000	1.40000E-001	-9.95548E-005	10	...........	0	-327.56
	154	1.55	1.53672E-001	1.06094E-002	0.00000E+000	1.54000E-001	-1.12888E-004	10	...........	0	-327.56
	168	1.69	1.67602E-001	1.21344E-002	0.00000E+000	1.68000E-001	-1.22888E-004	10	...........	0	-327.56
	182	1.83	1.81642E-001	1.38729E-002	0.00000E+000	1.82000E-001	-1.11221E-004	10	...........	0	-327.56
	196	1.97	1.95597E-001	1.58857E-002	0.00000E+000	1.96000E-001	-1.22888E-004	10	...........	0	-327.56
	210	2.11	2.09586E-001	1.82261E-002	0.00000E+000	2.10000E-001	-1.16221E-004	10	...........	0	-327.56
	224	2.25	2.23483E-001	2.09586E-002	0.00000E+000	2.24000E-001	-1.12888E-004	10	...........	0	-327.56
	238	2.39	2.37523E-001	2.41164E-002	0.00000E+000	2.38000E-001	-9.78881E-005	10	...........	0	-327.56
	252	2.53	2.51720E-001	2.78685E-002	0.00000E+000	2.52000E-001	-1.24555E-004	11	...........	0	-327.56
	266	2.67	2.65739E-001	3.20138E-002	0.00000E+000	2.66000E-001	-1.22888E-004	11	...........	0	-327.56
	280	2.81	2.79677E-001	3.67132E-002	0.00000E+000	2.80000E-001	-1.01221E-004	11	...........	0	-327.56
	294	2.95	2.93710E-001	4.20119E-002	0.00000E+000	2.94000E-001	-1.07888E-004	11	...........	0	-327.56
	308	3.09	3.07620E-001	4.80074E-002	0.00000E+000	3.08000E-001	-1.17888E-004	11	...........	0	-327.56
	322	3.23	3.21558E-001	5.46972E-002	0.00000E+000	3.22000E-001	-1.27888E-004	11	...........	0	-327.56
	336	3.37	3.35611E-001	6.22979E-002	0.00000E+000	3.36000E-001	-1.22888E-004	11	...........	0	-327.56
	350	3.51	3.49527E-001	7.07843E-002	0.00000E+000	3.50000E-001	-1.11221E-004	11	...........	0	-327.56
	364	3.65	3.63581E-001	8.02519E-002	0.00000E+000	3.64000E-001	-1.01221E-004	11	...........	0	-327.56
	378	3.79	3.77520E-001	9.08455E-002	0.00000E+000	3.78000E-001	-1.07888E-004	11	...........	0	-327.56
	392	3.93	3.91506E-001	1.02386E-001	0.00000E+000	3.92000E-001	-1.22888E-004	11	...........	0	-327.56
	406	4.07	4.05443E-001	1.15033E-001	0.00000E+000	4.06000E-001	-1.16221E-004	11	...........	0	-327.56
	420	4.21	4.19489E-001	1.28564E-001	0.00000E+000	4.20000E-001	-1.21221E-004	11	...........	0	-327.56
	434	4.35	4.33452E-001	1.43116E-001	0.00000E+000	4.34000E-001	-1.17888E-004	11	...........	0	-327.56
	448	4.49	4.47391E-001	1.58613E-001	0.00000E+000	4.48000E-001	-1.21221E-004	11	...........	0	-327.56
	462	4.63	4.61320E-001	1.75083E-001	0.00000E+000	4.62000E-001	-1.19555E-004	11	...........	0	-327.56
	476	4.77	4.75199E-001	1.92439E-001	0.00000E+000	4.76000E-001	-1.11221E-004	11	...........	0	-327.56
	490	4.91	4.89274E-001	2.10829E-001	0.00000E+000	4.90000E-001	-1.09555E-004	11	...........	0	-327.56
	504	5.05	5.03181E-001	2.29928E-001	0.00000E+000	5.04000E-001	-1.01221E-004	11	...........	0	-327.56
	518	5.19	5.17209E-001	2.49863E-001	0.00000E+000	5.18000E-001	-1.07888E-004	11	...........	0	-327.56
	532	5.33	5.31368E-001	2.71365E-001	0.00000E+000	5.32000E-001	-1.31221E-004	12	...h.......	0	-327.56
	546	5.47	5.45433E-001	2.91043E-001	0.00000E+000	5.46000E-001	-1.19555E-004	12	...........	0	-327.56
	560	5.61	5.59344E-001	3.05862E-001	0.00000E+000	5.60000E-001	-1.37888E-004	12	...........	0	-327.56
	574	5.75	5.73420E-001	3.12418E-001	0.00000E+000	5.74000E-001	-1.07888E-004	12	...........	0	-327.56
	588	5.89	5.87356E-001	3.15325E-001	0.00000E+000	5.88000E-001	-1.24555E-004	12	...........	0	-327.56
	602	6.03	6.01362E-001	3.22341E-001	0.00000E+000	6.02000E-001	-1.21221E-004	12	...........	0	-327.56
	616	6.17	6.15292E-001	3.30243E-001	0.00000E+000	6.16000E-001	-1.11221E-004	12	...........	0	-327.56
	630	6.31	6.29252E-001	3.31273E-001	0.00000E+000	6.30000E-001	-1.04555E-004	12	...........	0	-327.56
	644	6.45	6.43332E-001	3.25455E-001	0.00000E+000	6.44000E-001	-1.12888E-004	12	...........	0	-327.56
	658	6.59	6.57276E-001	3.02704E-001	0.00000E+000	6.58000E-001	-1.14555E-004	12	...........	0	-327.56
[...]
	826	8.27	8.25083E-001	1.45516E-001	0.00000E+000	8.26000E-001	-1.31221E-004	11	...........	0	-327.56
	840	8.41	8.39056E-001	1.42394E-001	0.00000E+000	8.40000E-001	-1.19555E-004	11	...........	0	-327.56
	854	8.55	8.53122E-001	1.39281E-001	0.00000E+000	8.54000E-001	-1.09555E-004	11	...........	0	-327.56
	868	8.69	8.67106E-001	1.35571E-001	0.00000E+000	8.68000E-001	-1.26221E-004	11	...........	0	-327.56
	882	8.83	8.81060E-001	1.32578E-001	0.00000E+000	8.82000E-001	-1.37888E-004	11	...........	0	-327.56
	896	8.97	8.95031E-001	1.29980E-001	0.00000E+000	8.96000E-001	-1.26221E-004	11	...........	0	-327.56
	910	9.11	9.08986E-001	1.26484E-001	0.00000E+000	9.10000E-001	-1.22888E-004	11	...........	0	-327.56
	924	9.25	9.23056E-001	1.23304E-001	0.00000E+000	9.24000E-001	-1.06221E-004	11	...........	0	-327.56
	938	9.39	9.36963E-001	1.20524E-001	0.00000E+000	9.38000E-001	-1.27888E-004	11	...........	0	-327.56
	952	9.53	9.51035E-001	1.17740E-001	0.00000E+000	9.52000E-001	-1.06221E-004	11	...........	0	-327.56
	966	9.67	9.64977E-001	1.15253E-001	0.00000E+000	9.66000E-001	-1.32888E-004	11	...........	0	-327.56
	980	9.81	9.79070E-001	1.12513E-001	0.00000E+000	9.80000E-001	-1.16221E-004	11	...........	0	-327.56
	994	9.95	9.92968E-001	1.10423E-001	0.00000E+000	9.94000E-001	-1.22888E-004	11	...........	0	-327.56
	1008	10.09	1.00704E+000	1.08243E-001	0.00000E+000	1.00800E+000	-1.32888E-004	11	...........	0	-327.56
	1022	10.23	1.02100E+000	1.06686E-001	0.00000E+000	1.02200E+000	-1.21221E-004	11	...........	0	-327.56
	1036	10.37	1.03501E+000	1.04902E-001	0.00000E+000	1.03600E+000	-1.17888E-004	11	...........	0	-327.56
	1050	10.51	1.04895E+000	1.03295E-001	0.00000E+000	1.05000E+000	-1.17888E-004	11	...........	0	-327.56
	1064	10.65	1.06289E+000	1.01705E-001	0.00000E+000	1.06400E+000	-1.01221E-004	11	...........	0	-327.56
	1078	10.79	1.07697E+000	1.00805E-001	0.00000E+000	1.07800E+000	-1.17888E-004	11	...........	0	-327.56
	1092	10.93	1.09100E+000	1.00416E-001	0.00000E+000	1.09200E+000	-1.16221E-004	11	...........	0	-327.56
	1106	11.07	1.10498E+000	1.00349E-001	0.00000E+000	1.10600E+000	-1.24555E-004	11	...........	0	-327.56
	1120	11.21	1.11891E+000	1.00560E-001	0.00000E+000	1.12000E+000	-1.11221E-004	11	...........	0	-327.56
	1134	11.35	1.13294E+000	1.01732E-001	0.00000E+000	1.13400E+000	-1.14555E-004	11	...........	0	-327.56
	1148	11.49	1.14687E+000	1.02755E-001	0.00000E+000	1.14800E+000	-1.12888E-004	11	...........	0	-327.56
	1162	11.63	1.16090E+000	1.04215E-001	0.00000E+000	1.16200E+000	-1.19555E-004	11	...........	0	-327.56
	1176	11.77	1.17485E+000	1.05533E-001	0.00000E+000	1.17600E+000	-1.14555E-004	11	...........	0	-327.56
	1190	11.91	1.18888E+000	1.07526E-001	0.00000E+000	1.19000E+000	-1.07888E-004	11	...........	0	-327.56
	1204	12.05	1.20285E+000	1.09028E-001	0.00000E+000	1.20400E+000	-1.12888E-004	11	...........	0	-327.56
	1218	12.19	1.21672E+000	1.10679E-001	0.00000E+000	1.21800E+000	-9.95548E-005	11	...........	0	-327.56
	1232	12.33	1.23085E+000	1.12640E-001	0.00000E+000	1.23200E+000	-1.09555E-004	11	...........	0	-327.56
	1246	12.47	1.24478E+000	1.14847E-001	0.00000E+000	1.24600E+000	-1.06221E-004	11	...........	0	-327.56
	1260	12.61	1.25881E+000	1.17374E-001	0.00000E+000	1.26000E+000	-1.16221E-004	11	...........	0	-327.56
	1274	12.75	1.27276E+000	1.20426E-001	0.00000E+000	1.27400E+000	-1.04555E-004	11	...........	0	-327.56
	1288	12.89	1.28683E+000	1.24202E-001	0.00000E+000	1.28800E+000	-1.19555E-004	11	...........	0	-327.56
	1300	13.01	1.29874E+000	1.28381E-001	0.00000E+000	1.30000E+000	-1.12888E-004	11	...........	0	-327.56

File: 241007_01_MCL21_cswWE1_CV2_CO2_750C.DTA
EXPLAIN
TAG	CV
TITLE	LABEL	Cyclic Voltammetry	Test &Identifier
DATE	LABEL	10/7/2024	Date
TIME	LABEL	15:52:45	Time
NOTES	NOTES	2	&Notes...
	WE: biltema wire 10mm x 1.5mm
	CE: biltema plate 2x2cm
PSTAT	PSTAT	REF3000-48128	Potentiostat
VINIT	POTEN	0.00000E+000	T	Initial &E (V)
VLIMIT1	POTEN	1.30000E+000	F	Scan Limit &1 (V)
VLIMIT2	POTEN	-1.00000E+000	F	Scan Limit &2 (V)
VFINAL	POTEN	1.30000E+000	F	Final &E (V)
SCANRATE	QUANT	2.00000E+000	&Scan Rate (mV/s)
STEPSIZE	QUANT	1.00000E+000	St&ep Size (mV)
CYCLES	IQUANT	2	C&ycles (#)
IMODE	SELECTOR	0	I/E Range &Mode
IRANGE	QUANT	0.00000E+000	&Max Current (mA)
AREA	QUANT	4.89000E-001	Electrode &Area (cm^2)
ELECTRODETYPE	SELECTOR	0	Electrode Type
STRIPPING	TOGGLE	F	Used for Stripping
CONDIT	TWOPARAM	F	1.50000E+001	0.00000E+000	Conditionin&g	Time(s)	E(V)
DELAY	TWOPARAM	T	3.00000E+001	1.00000E+000	Init. De&lay	Time(s)	Stab.(mV/s)
EQDELAY	QUANT	0.00000E+000	Equil. &Time (s)
IRCOMP	SELECTOR	0	IRCom&p
PFCOR	QUANT	5.00000E+001	PF Corr. (ohm)
SAMPLINGMODE	SELECTOR	1	Sampling &Mode
OCVCURVE	TABLE	11
	Pt	T	Vf	Vm	Ach	Over	Temp
	#	s	V vs. Ref.	V	V	bits	deg C
	0	0.25	1.10862E-001	1.10862E-001	-8.88481E-004	...........	-327.56
	1	0.5	1.10856E-001	1.10565E-001	-8.93547E-004	...........	-327.56
	2	0.75	1.10821E-001	1.10244E-001	-8.88148E-004	...........	-327.56
	3	1	1.10716E-001	1.09892E-001	-8.93014E-004	...........	-327.56
	4	1.25	1.10520E-001	1.09478E-001	-8.88547E-004	...........	-327.56
	5	1.5	1.10239E-001	1.09117E-001	-8.92947E-004	...........	-327.56
	6	1.75	1.09899E-001	1.08698E-001	-8.86947E-004	...........	-327.56
	7	2	1.09527E-001	1.08424E-001	-8.95147E-004	...........	-327.56
	8	2.25	1.09149E-001	1.08084E-001	-8.94281E-004	...........	-327.56
	9	2.5	1.08785E-001	1.07735E-001	-8.91081E-004	...........	-327.56
	10	2.75	1.08437E-001	1.07406E-001	-8.89347E-004	...........	-327.56
EOC	QUANT	0.1084374	Open Circuit (V)
PSTATMODEL	IQUANT	5	Pstat Model
PSTATSECTION	LABEL	REF3000-48128	Pstat Section
PSTATSERIALNO	LABEL	48128	Pstat Serial Number
CTRLMODE	IQUANT	1	Control Mode
ELECTROMETER	IQUANT	0	RE=0 or CS=1
IESTAB	IQUANT	2	I/E Stability
CASPEED	IQUANT	4	Control Amp Speed
CONVENTION	IQUANT	1	Current Convention
ICHRANGE	IQUANT	2	Ich Range
ICHRANGEMODE	TOGGLE	F	Ich Auto Range
ICHOFFSETENABLE	TOGGLE	F	Ich Offset Enable
ICHOFFSET	QUANT	0	Ich Offset (V)
ICHFILTER	IQUANT	3	Ich Filter
VCHRANGE	IQUANT	2	Vch Range
VCHRANGEMODE	TOGGLE	F	Vch Auto Range
VCHOFFSETENABLE	TOGGLE	F	Vch Offset Enable
VCHOFFSET	QUANT	0	Vch Offset (V)
VCHFILTER	IQUANT	3	Vch Filter
ACHRANGE	IQUANT	2	Ach Range
ACHOFFSETENABLE	TOGGLE	F	Ach Offset Enable
ACHOFFSET	QUANT	0	Ach Offset (V)
ACHFILTER	IQUANT	1	Ach Filter
IERANGELOWERLIMIT	IQUANT	2	I/E Range Lower Limit
IERANGEMODE	TOGGLE	T	I/E AutoRange
IERANGE	IQUANT	2	I/E Range
POSFEEDENABLE	TOGGLE	F	Positive Feedback IR Comp
POSFEEDRESISTANCE	QUANT	0	Positive Feedback Resistance (ohm)
ACHSELECT	IQUANT	4	Ach Select
SENSECABLEID	IQUANT	14	Sense Cable ID
PWRCABLEID	IQUANT	7	Power Cable ID
DCCALDATE	LABEL	9/17/2024	DC Calibration Date
ACCALDATE	LABEL	8/16/2024	AC Calibration Date
THERMOSELECT	IQUANT	1	Thermo Select
FRAMEWORKVERSION	LABEL	7.10.3	Framework Version
INSTRUMENTVERSION	LABEL	4.91	Instrument Version
COMMVERSION	LABEL	5.10	Communications Version
CPUPLDVERSION	LABEL	6.00	CPU PLD Version
CTRLPLDVERSION	LABEL	3.21	CTRL PLD Version
PSTATPLDVERSION	LABEL	0.00	PSTAT PLD Version
COMPLIANCEVOLTAGE	IQUANT	0	Compliance Voltage
CURVE1	TABLE
	Pt	T	Vf	Im	Vu	Sig	Ach	IERange	Over	Temp
	#	s	V vs. Ref.	A	V	V	V	#	bits	deg C
	0	0.5	1.07185E-001	3.27499E-006	0.00000E+000	1.08450E-001	-5.36141E-005	6	....ih..i..	-327.56
	36	18.5	1.44191E-001	4.58485E-003	0.00000E+000	1.44450E-001	-5.60474E-005	10	...........	-327.56
	72	36.5	1.80153E-001	8.53040E-003	0.00000E+000	1.80450E-001	-6.49808E-005	10	...........	-327.56
	108	54.5	2.16102E-001	1.30463E-002	0.00000E+000	2.16450E-001	-6.32808E-005	10	...........	-327.56
	144	72.5	2.51957E-001	1.84227E-002	0.00000E+000	2.52450E-001	-6.01808E-005	10	...........	-327.56
	180	90.5	2.87919E-001	2.46838E-002	0.00000E+000	2.88450E-001	-6.13474E-005	10	...........	-327.56
	216	108.5	3.24026E-001	3.25841E-002	0.00000E+000	3.24450E-001	-6.19474E-005	11	...........	-327.56
	252	126.5	3.60047E-001	4.25125E-002	0.00000E+000	3.60450E-001	-6.67474E-005	11	...........	-327.56
	288	144.5	3.95995E-001	5.50423E-002	0.00000E+000	3.96450E-001	-6.81808E-005	11	...........	-327.56
	324	162.5	4.31967E-001	6.07060E-002	0.00000E+000	4.32450E-001	-6.73141E-005	11	...........	-327.56
	360	180.5	4.68023E-001	2.68810E-002	0.00000E+000	4.68450E-001	-6.23141E-005	11	...........	-327.56
	396	198.5	5.03963E-001	2.55427E-002	0.00000E+000	5.04450E-001	-6.36474E-005	11	...........	-327.56
	432	216.5	5.39945E-001	2.84533E-002	0.00000E+000	5.40450E-001	-5.92141E-005	11	...........	-327.56
	468	234.5	5.75926E-001	2.96088E-002	0.00000E+000	5.76450E-001	-6.30141E-005	11	...........	-327.56
	504	252.5	6.11863E-001	2.94404E-002	0.00000E+000	6.12450E-001	-6.24808E-005	11	...........	-327.56
	540	270.5	6.47891E-001	2.87572E-002	0.00000E+000	6.48450E-001	-6.30808E-005	11	...........	-327.56
	576	288.5	6.83768E-001	2.81135E-002	0.00000E+000	6.84450E-001	-6.39141E-005	11	...........	-327.56
	612	306.5	7.19786E-001	2.76464E-002	0.00000E+000	7.20450E-001	-6.61474E-005	11	...........	-327.56
	648	324.5	7.55660E-001	2.75017E-002	0.00000E+000	7.56450E-001	-6.20141E-005	11	...........	-327.56
	684	342.5	7.91693E-001	2.76335E-002	0.00000E+000	7.92450E-001	-6.47141E-005	11	...........	-327.56
	720	360.5	8.27676E-001	2.78532E-002	0.00000E+000	8.28450E-001	-6.08474E-005	11	...........	-327.56
	756	378.5	8.63578E-001	2.80345E-002	0.00000E+000	8.64450E-001	-6.14141E-005	11	...........	-327.56
	792	396.5	8.99612E-001	2.81057E-002	0.00000E+000	9.00450E-001	-6.10141E-005	11	...........	-327.56
	828	414.5	9.35462E-001	2.81515E-002	0.00000E+000	9.36450E-001	-6.42808E-005	11	...........	-327.56
	864	432.5	9.71496E-001	2.82712E-002	0.00000E+000	9.72450E-001	-6.48141E-005	11	...........	-327.56
	900	450.5	1.00749E+000	2.90290E-002	0.00000E+000	1.00845E+000	-6.15474E-005	11	...........	-327.56
	936	468.5	1.04339E+000	3.12034E-002	0.00000E+000	1.04445E+000	-6.30808E-005	11	...........	-327.56
	972	486.5	1.07944E+000	3.44093E-002	0.00000E+000	1.08045E+000	-6.30474E-005	11	...........	-327.56
	1008	504.5	1.11534E+000	3.86779E-002	0.00000E+000	1.11645E+000	-6.51141E-005	11	...........	-327.56
	1044	522.5	1.15127E+000	4.40809E-002	0.00000E+000	1.15245E+000	-6.42474E-005	11	...........	-327.56
	1080	540.5	1.18731E+000	5.12138E-002	0.00000E+000	1.18845E+000	-6.24474E-005	11	...........	-327.56
	1116	558.5	1.22320E+000	5.77268E-002	0.00000E+000	1.22445E+000	-6.29474E-005	11	...........	-327.56
	1152	576.5	1.25926E+000	6.55332E-002	0.00000E+000	1.26045E+000	-6.63141E-005	11	...........	-327.56
	1188	594.5	1.29513E+000	7.87401E-002	0.00000E+000	1.29645E+000	-6.14141E-005	11	...........	-327.56
	1224	612.5	1.26725E+000	5.83465E-002	0.00000E+000	1.26845E+000	-6.11141E-005	11	...........	-327.56
	1260	630.5	1.23129E+000	3.94313E-002	0.00000E+000	1.23245E+000	-6.45141E-005	11	...........	-327.56
	1296	648.5	1.19526E+000	3.20075E-002	0.00000E+000	1.19645E+000	-6.41141E-005	11	...........	-327.56
	1332	666.5	1.15914E+000	2.19590E-002	0.00000E+000	1.16045E+000	-5.78141E-005	10	...........	-327.56
[...]
	9557	4779	4.64400E-001	1.33004E-001	0.00000E+000	4.65000E-001	-5.77141E-005	11	...........	-327.56
	9581	4791	4.88383E-001	1.28620E-001	0.00000E+000	4.89000E-001	-6.14474E-005	11	...........	-327.56
	9605	4803	5.12331E-001	1.16233E-001	0.00000E+000	5.13000E-001	-5.84808E-005	11	...........	-327.56
	9629	4815	5.36312E-001	1.12686E-001	0.00000E+000	5.37000E-001	-6.14808E-005	11	...........	-327.56
	9653	4827	5.60306E-001	1.07101E-001	0.00000E+000	5.61000E-001	-6.05474E-005	11	...........	-327.56
	9677	4839	5.84275E-001	1.00375E-001	0.00000E+000	5.85000E-001	-5.76474E-005	11	...........	-327.56
	9701	4851	6.08273E-001	9.14002E-002	0.00000E+000	6.09000E-001	-6.01474E-005	11	...........	-327.56
	9725	4863	6.32252E-001	8.31426E-002	0.00000E+000	6.33000E-001	-6.14474E-005	11	...........	-327.56
	9749	4875	6.56246E-001	7.56608E-002	0.00000E+000	6.57000E-001	-6.16141E-005	11	...........	-327.56
	9773	4887	6.80226E-001	6.96718E-002	0.00000E+000	6.81000E-001	-6.20808E-005	11	...........	-327.56
	9797	4899	7.04218E-001	6.40074E-002	0.00000E+000	7.05000E-001	-5.82808E-005	11	...........	-327.56
	9821	4911	7.28289E-001	5.94515E-002	0.00000E+000	7.29000E-001	-5.99474E-005	11	...........	-327.56
	9845	4923	7.52287E-001	5.52467E-002	0.00000E+000	7.53000E-001	-5.99474E-005	11	...........	-327.56
	9869	4935	7.76255E-001	5.25239E-002	0.00000E+000	7.77000E-001	-5.87474E-005	11	...........	-327.56
	9893	4947	8.00262E-001	5.02855E-002	0.00000E+000	8.01000E-001	-5.83808E-005	11	...........	-327.56
	9917	4959	8.24198E-001	4.86270E-002	0.00000E+000	8.25000E-001	-6.05474E-005	11	...........	-327.56
	9941	4971	8.48172E-001	4.74410E-002	0.00000E+000	8.49000E-001	-6.04808E-005	11	...........	-327.56
	9965	4983	8.72151E-001	4.64549E-002	0.00000E+000	8.73000E-001	-5.96808E-005	11	...........	-327.56
	9989	4995	8.96117E-001	4.54722E-002	0.00000E+000	8.97000E-001	-6.05474E-005	11	...........	-327.56
	10013	5007	9.20098E-001	4.47372E-002	0.00000E+000	9.21000E-001	-6.14141E-005	11	...........	-327.56
	10037	5019	9.44044E-001	4.36311E-002	0.00000E+000	9.45000E-001	-5.97474E-005	11	...........	-327.56
	10061	5031	9.68025E-001	4.28432E-002	0.00000E+000	9.69000E-001	-6.16474E-005	11	...........	-327.56
	10085	5043	9.92000E-001	4.23495E-002	0.00000E+000	9.93000E-001	-6.20141E-005	11	...........	-327.56
	10109	5055	1.01598E+000	4.25392E-002	0.00000E+000	1.01700E+000	-5.77808E-005	11	...........	-327.56
	10133	5067	1.03996E+000	4.43647E-002	0.00000E+000	1.04100E+000	-6.16474E-005	11	...........	-327.56
	10157	5079	1.06395E+000	4.74506E-002	0.00000E+000	1.06500E+000	-6.00141E-005	11	...........	-327.56
	10181	5091	1.08798E+000	5.16882E-002	0.00000E+000	1.08900E+000	-5.97808E-005	11	...........	-327.56
	10205	5103	1.11195E+000	5.68666E-002	0.00000E+000	1.11300E+000	-6.08474E-005	11	...........	-327.56
	10229	5115	1.13590E+000	6.34937E-002	0.00000E+000	1.13700E+000	-5.98474E-005	11	...........	-327.56
	10253	5127	1.15987E+000	6.84595E-002	0.00000E+000	1.16100E+000	-6.05474E-005	11	...........	-327.56
	10277	5139	1.18386E+000	7.27023E-002	0.00000E+000	1.18500E+000	-6.28808E-005	11	...........	-327.56
	10301	5151	1.20784E+000	7.59383E-002	0.00000E+000	1.20900E+000	-5.89141E-005	11	...........	-327.56
	10325	5163	1.23181E+000	7.74962E-002	0.00000E+000	1.23300E+000	-5.89808E-005	11	...........	-327.56
	10349	5175	1.25579E+000	7.66660E-002	0.00000E+000	1.25700E+000	-6.25474E-005	11	...........	-327.56
	10373	5187	1.27975E+000	7.36717E-002	0.00000E+000	1.28100E+000	-6.13141E-005	11	...........	-327.56
	10392	5196.5	1.29869E+000	7.19149E-002	0.00000E+000	1.30000E+000	-5.97141E-005	11	...........	-327.56