Folder: ectools/testing/data (part 11)

File: 240902_19_MCL13_cspWE_CV2_750C_CO2.DTA
EXPLAIN
TAG	CV
TITLE	LABEL	Cyclic Voltammetry	Test Identifier
DATE	LABEL	9/3/2024	Date
TIME	LABEL	17:57:41	Time
NOTES	NOTES	5	Notes...
	cswWE - carbon steel wire
cspWE - carbon steel plate 2x2 tapered

Carbon steel plate counter electrode
Carbon steel wire reference electrode
PSTAT	PSTAT	REF3000-48128	Potentiostat
VINIT	POTEN	0.00000E+000	T	Initial E (V)
VLIMIT1	POTEN	1.70000E+000	F	Scan Limit 1 (V)
VLIMIT2	POTEN	-6.00000E-001	F	Scan Limit 2 (V)
VFINAL	POTEN	1.70000E+000	F	Final E (V)
SCANRATE	QUANT	2.00000E+000	Scan Rate (mV/s)
STEPSIZE	QUANT	1.00000E+000	Step Size (mV)
CYCLES	IQUANT	2	Cycles (#)
IMODE	SELECTOR	0	I/E Range Mode
IRANGE	QUANT	3.00000E-001	Max Current (mA)
AREA	QUANT	1.00000E+000	Sample Area (cm^2)
EQDELAY	QUANT	0.00000E+000	Equil. Time (s)
IRCOMP	SELECTOR	0	IRComp
PFCOR	QUANT	5.00000E+001	PF Corr. (ohm)
SAMPLINGMODE	SELECTOR	1	Sampling Mode
EOC	QUANT	-0.0297146	Open Circuit (V)
ELECTRODETYPE	SELECTOR	0	Electrode Type
STRIPPING	TOGGLE	F	Used for Stripping
SEQUENCER	TOGGLE	TRUE	Run as Sequence
PSTATMODEL	IQUANT	5	Pstat Model
PSTATSECTION	LABEL	REF3000-48128	Pstat Section
PSTATSERIALNO	LABEL	48128	Pstat Serial Number
CTRLMODE	IQUANT	1	Control Mode
ELECTROMETER	IQUANT	0	RE=0 or CS=1
IESTAB	IQUANT	2	I/E Stability
CASPEED	IQUANT	4	Control Amp Speed
CONVENTION	IQUANT	1	Current Convention
ICHRANGE	IQUANT	2	Ich Range
ICHRANGEMODE	TOGGLE	F	Ich Auto Range
ICHOFFSETENABLE	TOGGLE	F	Ich Offset Enable
ICHOFFSET	QUANT	0	Ich Offset (V)
ICHFILTER	IQUANT	3	Ich Filter
VCHRANGE	IQUANT	2	Vch Range
VCHRANGEMODE	TOGGLE	F	Vch Auto Range
VCHOFFSETENABLE	TOGGLE	F	Vch Offset Enable
VCHOFFSET	QUANT	0	Vch Offset (V)
VCHFILTER	IQUANT	3	Vch Filter
ACHRANGE	IQUANT	2	Ach Range
ACHOFFSETENABLE	TOGGLE	F	Ach Offset Enable
ACHOFFSET	QUANT	0	Ach Offset (V)
ACHFILTER	IQUANT	1	Ach Filter
IERANGELOWERLIMIT	IQUANT	2	I/E Range Lower Limit
IERANGEMODE	TOGGLE	T	I/E AutoRange
IERANGE	IQUANT	9	I/E Range
POSFEEDENABLE	TOGGLE	F	Positive Feedback IR Comp
POSFEEDRESISTANCE	QUANT	0	Positive Feedback Resistance (ohm)
ACHSELECT	IQUANT	4	Ach Select
SENSECABLEID	IQUANT	14	Sense Cable ID
PWRCABLEID	IQUANT	7	Power Cable ID
DCCALDATE	LABEL	8/16/2024	DC Calibration Date
ACCALDATE	LABEL	8/16/2024	AC Calibration Date
THERMOSELECT	IQUANT	1	Thermo Select
FRAMEWORKVERSION	LABEL	7.10.3	Framework Version
INSTRUMENTVERSION	LABEL	4.91	Instrument Version
COMMVERSION	LABEL	5.10	Communications Version
CPUPLDVERSION	LABEL	6.00	CPU PLD Version
CTRLPLDVERSION	LABEL	3.21	CTRL PLD Version
PSTATPLDVERSION	LABEL	0.00	PSTAT PLD Version
COMPLIANCEVOLTAGE	IQUANT	0	Compliance Voltage
CURVE1	TABLE
	Pt	T	Vf	Im	Vu	Sig	Ach	IERange	Over	Temp
	#	s	V vs. Ref.	A	V	V	V	#	bits	deg C
	0	0.5	-2.96498E-002	1.86713E-004	0.00000E+000	-2.97000E-002	-1.06055E-004	9	...........	-327.56
	41	21	1.09445E-002	2.02374E-003	0.00000E+000	1.13000E-002	-1.05488E-004	9	...........	-327.56
	82	41.5	5.21050E-002	3.93591E-003	0.00000E+000	5.23000E-002	-1.11921E-004	10	...........	-327.56
	123	62	9.30153E-002	5.98107E-003	0.00000E+000	9.33000E-002	-1.14288E-004	10	...........	-327.56
	164	82.5	1.33975E-001	9.06113E-003	0.00000E+000	1.34300E-001	-1.10721E-004	10	...........	-327.56
	205	103	1.74815E-001	1.43329E-002	0.00000E+000	1.75300E-001	-1.12721E-004	10	...........	-327.56
	246	123.5	2.15741E-001	2.06981E-002	0.00000E+000	2.16300E-001	-1.11788E-004	10	...........	-327.56
	287	144	2.56909E-001	2.94133E-002	0.00000E+000	2.57300E-001	-1.14421E-004	11	...........	-327.56
	328	164.5	2.97829E-001	4.30558E-002	0.00000E+000	2.98300E-001	-1.12221E-004	11	...........	-327.56
	369	185	3.38796E-001	5.93562E-002	0.00000E+000	3.39300E-001	-1.14955E-004	11	...........	-327.56
	410	205.5	3.79684E-001	8.29898E-002	0.00000E+000	3.80300E-001	-1.13021E-004	11	...........	-327.56
	451	226	4.20681E-001	1.12065E-001	0.00000E+000	4.21300E-001	-1.14988E-004	11	...........	-327.56
	492	246.5	4.61556E-001	1.50600E-001	0.00000E+000	4.62300E-001	-1.10055E-004	11	...........	-327.56
	533	267	5.02372E-001	1.99885E-001	0.00000E+000	5.03300E-001	-1.09655E-004	11	...........	-327.56
	574	287.5	5.43301E-001	2.58274E-001	0.00000E+000	5.44300E-001	-1.10521E-004	11	...........	-327.56
	615	308	5.84261E-001	2.46987E-001	0.00000E+000	5.85300E-001	-1.11055E-004	11	...........	-327.56
	656	328.5	6.25295E-001	2.16296E-001	0.00000E+000	6.26300E-001	-1.08421E-004	11	...........	-327.56
	697	349	6.66301E-001	1.90214E-001	0.00000E+000	6.67300E-001	-1.07855E-004	11	...........	-327.56
	738	369.5	7.07243E-001	1.63321E-001	0.00000E+000	7.08300E-001	-1.16655E-004	11	...........	-327.56
	779	390	7.48326E-001	1.25976E-001	0.00000E+000	7.49300E-001	-1.14455E-004	11	...........	-327.56
	820	410.5	7.89311E-001	9.84887E-002	0.00000E+000	7.90300E-001	-1.13088E-004	11	...........	-327.56
	861	431	8.30315E-001	8.12903E-002	0.00000E+000	8.31300E-001	-1.16221E-004	11	...........	-327.56
	902	451.5	8.71277E-001	6.96533E-002	0.00000E+000	8.72300E-001	-1.11488E-004	11	...........	-327.56
	943	472	9.12237E-001	6.48285E-002	0.00000E+000	9.13300E-001	-1.10055E-004	11	...........	-327.56
	984	492.5	9.53230E-001	6.26039E-002	0.00000E+000	9.54300E-001	-1.13188E-004	11	...........	-327.56
	1025	513	9.94173E-001	6.14547E-002	0.00000E+000	9.95300E-001	-1.11388E-004	11	...........	-327.56
	1066	533.5	1.03515E+000	6.23910E-002	0.00000E+000	1.03630E+000	-1.13355E-004	11	...........	-327.56
	1107	554	1.07611E+000	6.53228E-002	0.00000E+000	1.07730E+000	-1.15255E-004	11	...........	-327.56
	1148	574.5	1.11703E+000	7.11537E-002	0.00000E+000	1.11830E+000	-1.11255E-004	11	...........	-327.56
	1189	595	1.15802E+000	8.30813E-002	0.00000E+000	1.15930E+000	-1.08688E-004	11	...........	-327.56
	1230	615.5	1.19889E+000	1.08289E-001	0.00000E+000	1.20030E+000	-1.09355E-004	11	...........	-327.56
	1271	636	1.23987E+000	1.58306E-001	0.00000E+000	1.24130E+000	-1.15988E-004	11	...........	-327.56
	1312	656.5	1.28068E+000	2.35289E-001	0.00000E+000	1.28230E+000	-1.08555E-004	11	...........	-327.56
	1353	677	1.32179E+000	3.31586E-001	0.00000E+000	1.32330E+000	-1.13488E-004	12	...........	-327.56
	1394	697.5	1.36269E+000	4.65518E-001	0.00000E+000	1.36430E+000	-1.10721E-004	12	...........	-327.56
	1435	718	1.40353E+000	6.08185E-001	0.00000E+000	1.40530E+000	-1.10755E-004	12	...........	-327.56
	1476	738.5	1.44444E+000	7.55915E-001	0.00000E+000	1.44630E+000	-1.15588E-004	12	...........	-327.56
	1517	759	1.48530E+000	8.99925E-001	0.00000E+000	1.48730E+000	-1.10488E-004	12	...........	-327.56
	1558	779.5	1.52615E+000	1.06685E+000	0.00000E+000	1.52830E+000	-1.13988E-004	12	...........	-327.56
	1599	800	1.56705E+000	1.23141E+000	0.00000E+000	1.56930E+000	-1.10021E-004	12	...........	-327.56
	1640	820.5	1.60793E+000	1.36358E+000	0.00000E+000	1.61030E+000	-1.13955E-004	12	...........	-327.56
	1681	841	1.64886E+000	1.51065E+000	0.00000E+000	1.65130E+000	-1.14121E-004	12	...........	-327.56
	1722	861.5	1.68977E+000	1.64985E+000	0.00000E+000	1.69230E+000	-1.11055E-004	12	...........	-327.56
	1763	882	1.66479E+000	1.58178E+000	0.00000E+000	1.66730E+000	-1.11921E-004	12	...........	-327.56
	1804	902.5	1.62393E+000	1.45754E+000	0.00000E+000	1.62630E+000	-1.09921E-004	12	...........	-327.56
	1845	923	1.58295E+000	1.32979E+000	0.00000E+000	1.58530E+000	-1.12288E-004	12	...........	-327.56
	1886	943.5	1.54209E+000	1.17669E+000	0.00000E+000	1.54430E+000	-1.08588E-004	12	...........	-327.56
[...]
	10095	5048	8.63990E-001	5.60329E-002	0.00000E+000	8.65000E-001	-1.17955E-004	11	...........	-327.56
	10119	5060	8.87964E-001	5.48598E-002	0.00000E+000	8.89000E-001	-1.17021E-004	11	...........	-327.56
	10143	5072	9.11955E-001	5.43232E-002	0.00000E+000	9.13000E-001	-1.14855E-004	11	...........	-327.56
	10167	5084	9.35933E-001	5.42071E-002	0.00000E+000	9.37000E-001	-1.15155E-004	11	...........	-327.56
	10191	5096	9.59954E-001	5.34220E-002	0.00000E+000	9.61000E-001	-1.12588E-004	11	...........	-327.56
	10215	5108	9.83937E-001	5.32572E-002	0.00000E+000	9.85000E-001	-1.12855E-004	11	...........	-327.56
	10239	5120	1.00793E+000	5.39418E-002	0.00000E+000	1.00900E+000	-1.17321E-004	11	...........	-327.56
	10263	5132	1.03190E+000	5.60966E-002	0.00000E+000	1.03300E+000	-1.15488E-004	11	...........	-327.56
	10287	5144	1.05589E+000	6.01103E-002	0.00000E+000	1.05700E+000	-1.12455E-004	11	...........	-327.56
	10311	5156	1.07987E+000	6.76066E-002	0.00000E+000	1.08100E+000	-1.13221E-004	11	...........	-327.56
	10335	5168	1.10382E+000	7.91539E-002	0.00000E+000	1.10500E+000	-1.13921E-004	11	...........	-327.56
	10359	5180	1.12771E+000	9.63627E-002	0.00000E+000	1.12900E+000	-1.11988E-004	11	...........	-327.56
	10383	5192	1.15161E+000	1.22311E-001	0.00000E+000	1.15300E+000	-1.14321E-004	11	...........	-327.56
	10407	5204	1.17555E+000	1.55331E-001	0.00000E+000	1.17700E+000	-1.11955E-004	11	...........	-327.56
	10431	5216	1.19945E+000	1.93369E-001	0.00000E+000	1.20100E+000	-1.13788E-004	11	...........	-327.56
	10455	5228	1.22339E+000	2.38796E-001	0.00000E+000	1.22500E+000	-1.14688E-004	11	...........	-327.56
	10479	5240	1.24758E+000	2.90811E-001	0.00000E+000	1.24900E+000	-1.10388E-004	12	...........	-327.56
	10503	5252	1.27152E+000	3.50895E-001	0.00000E+000	1.27300E+000	-1.10955E-004	12	...........	-327.56
	10527	5264	1.29545E+000	4.19338E-001	0.00000E+000	1.29700E+000	-1.15255E-004	12	...........	-327.56
	10551	5276	1.31936E+000	4.94358E-001	0.00000E+000	1.32100E+000	-1.18355E-004	12	...........	-327.56
	10575	5288	1.34336E+000	5.74080E-001	0.00000E+000	1.34500E+000	-1.18188E-004	12	...........	-327.56
	10599	5300	1.36729E+000	6.55316E-001	0.00000E+000	1.36900E+000	-1.17388E-004	12	...........	-327.56
	10623	5312	1.39119E+000	7.55085E-001	0.00000E+000	1.39300E+000	-1.17421E-004	12	...........	-327.56
	10647	5324	1.41511E+000	8.50895E-001	0.00000E+000	1.41700E+000	-1.08955E-004	12	...........	-327.56
	10671	5336	1.43904E+000	9.56719E-001	0.00000E+000	1.44100E+000	-1.12021E-004	12	...........	-327.56
	10695	5348	1.46295E+000	1.05213E+000	0.00000E+000	1.46500E+000	-1.10588E-004	12	...........	-327.56
	10719	5360	1.48687E+000	1.15206E+000	0.00000E+000	1.48900E+000	-1.19155E-004	12	...........	-327.56
	10743	5372	1.51079E+000	1.24324E+000	0.00000E+000	1.51300E+000	-1.11955E-004	12	...........	-327.56
	10767	5384	1.53473E+000	1.32983E+000	0.00000E+000	1.53700E+000	-1.14921E-004	12	...........	-327.56
	10791	5396	1.55864E+000	1.41404E+000	0.00000E+000	1.56100E+000	-1.09455E-004	12	...........	-327.56
	10815	5408	1.58261E+000	1.50270E+000	0.00000E+000	1.58500E+000	-1.16588E-004	12	...........	-327.56
	10839	5420	1.60653E+000	1.57892E+000	0.00000E+000	1.60900E+000	-1.13921E-004	12	...........	-327.56
	10863	5432	1.63048E+000	1.65954E+000	0.00000E+000	1.63300E+000	-1.18355E-004	12	...........	-327.56
	10887	5444	1.65444E+000	1.72072E+000	0.00000E+000	1.65700E+000	-1.15421E-004	12	...........	-327.56
	10911	5456	1.67837E+000	1.79319E+000	0.00000E+000	1.68100E+000	-1.15555E-004	12	...........	-327.56
	10930	5465.5	1.69745E+000	1.84473E+000	0.00000E+000	1.70000E+000	-1.16155E-004	12	...........	-327.56

File: 240902_20_MCL13_cspWE_CV2_750C_CO2.DTA
EXPLAIN
TAG	CV
TITLE	LABEL	Cyclic Voltammetry	Test Identifier
DATE	LABEL	9/3/2024	Date
TIME	LABEL	19:29:48	Time
NOTES	NOTES	5	Notes...
	cswWE - carbon steel wire
cspWE - carbon steel plate 2x2 tapered

Carbon steel plate counter electrode
Carbon steel wire reference electrode
PSTAT	PSTAT	REF3000-48128	Potentiostat
VINIT	POTEN	0.00000E+000	T	Initial E (V)
VLIMIT1	POTEN	1.70000E+000	F	Scan Limit 1 (V)
VLIMIT2	POTEN	-8.00000E-001	F	Scan Limit 2 (V)
VFINAL	POTEN	1.70000E+000	F	Final E (V)
SCANRATE	QUANT	2.00000E+000	Scan Rate (mV/s)
STEPSIZE	QUANT	1.00000E+000	Step Size (mV)
CYCLES	IQUANT	2	Cycles (#)
IMODE	SELECTOR	0	I/E Range Mode
IRANGE	QUANT	3.00000E-001	Max Current (mA)
AREA	QUANT	1.00000E+000	Sample Area (cm^2)
EQDELAY	QUANT	0.00000E+000	Equil. Time (s)
IRCOMP	SELECTOR	0	IRComp
PFCOR	QUANT	5.00000E+001	PF Corr. (ohm)
SAMPLINGMODE	SELECTOR	1	Sampling Mode
EOC	QUANT	0.5101995	Open Circuit (V)
ELECTRODETYPE	SELECTOR	0	Electrode Type
STRIPPING	TOGGLE	F	Used for Stripping
SEQUENCER	TOGGLE	TRUE	Run as Sequence
PSTATMODEL	IQUANT	5	Pstat Model
PSTATSECTION	LABEL	REF3000-48128	Pstat Section
PSTATSERIALNO	LABEL	48128	Pstat Serial Number
CTRLMODE	IQUANT	1	Control Mode
ELECTROMETER	IQUANT	0	RE=0 or CS=1
IESTAB	IQUANT	2	I/E Stability
CASPEED	IQUANT	4	Control Amp Speed
CONVENTION	IQUANT	1	Current Convention
ICHRANGE	IQUANT	2	Ich Range
ICHRANGEMODE	TOGGLE	F	Ich Auto Range
ICHOFFSETENABLE	TOGGLE	F	Ich Offset Enable
ICHOFFSET	QUANT	0	Ich Offset (V)
ICHFILTER	IQUANT	3	Ich Filter
VCHRANGE	IQUANT	2	Vch Range
VCHRANGEMODE	TOGGLE	F	Vch Auto Range
VCHOFFSETENABLE	TOGGLE	F	Vch Offset Enable
VCHOFFSET	QUANT	0	Vch Offset (V)
VCHFILTER	IQUANT	3	Vch Filter
ACHRANGE	IQUANT	2	Ach Range
ACHOFFSETENABLE	TOGGLE	F	Ach Offset Enable
ACHOFFSET	QUANT	0	Ach Offset (V)
ACHFILTER	IQUANT	1	Ach Filter
IERANGELOWERLIMIT	IQUANT	2	I/E Range Lower Limit
IERANGEMODE	TOGGLE	T	I/E AutoRange
IERANGE	IQUANT	9	I/E Range
POSFEEDENABLE	TOGGLE	F	Positive Feedback IR Comp
POSFEEDRESISTANCE	QUANT	0	Positive Feedback Resistance (ohm)
ACHSELECT	IQUANT	4	Ach Select
SENSECABLEID	IQUANT	14	Sense Cable ID
PWRCABLEID	IQUANT	7	Power Cable ID
DCCALDATE	LABEL	8/16/2024	DC Calibration Date
ACCALDATE	LABEL	8/16/2024	AC Calibration Date
THERMOSELECT	IQUANT	1	Thermo Select
FRAMEWORKVERSION	LABEL	7.10.3	Framework Version
INSTRUMENTVERSION	LABEL	4.91	Instrument Version
COMMVERSION	LABEL	5.10	Communications Version
CPUPLDVERSION	LABEL	6.00	CPU PLD Version
CTRLPLDVERSION	LABEL	3.21	CTRL PLD Version
PSTATPLDVERSION	LABEL	0.00	PSTAT PLD Version
COMPLIANCEVOLTAGE	IQUANT	0	Compliance Voltage
CURVE1	TABLE
	Pt	T	Vf	Im	Vu	Sig	Ach	IERange	Over	Temp
	#	s	V vs. Ref.	A	V	V	V	#	bits	deg C
	0	0.5	5.09435E-001	1.93137E-003	0.00000E+000	5.10200E-001	-1.02255E-004	9	...........	-327.56
	38	19.5	5.47317E-001	2.63010E-002	0.00000E+000	5.48200E-001	-1.02321E-004	10	...........	-327.56
	76	38.5	5.85530E-001	3.76996E-002	0.00000E+000	5.86200E-001	-1.18221E-004	11	...........	-327.56
	114	57.5	6.23495E-001	4.15807E-002	0.00000E+000	6.24200E-001	-1.11821E-004	11	...........	-327.56
	152	76.5	6.61456E-001	4.03368E-002	0.00000E+000	6.62200E-001	-1.16321E-004	11	...........	-327.56
	190	95.5	6.99464E-001	4.29027E-002	0.00000E+000	7.00200E-001	-1.14355E-004	11	...........	-327.56
	228	114.5	7.37377E-001	3.94073E-002	0.00000E+000	7.38200E-001	-1.15755E-004	11	...........	-327.56
	266	133.5	7.75366E-001	3.76546E-002	0.00000E+000	7.76200E-001	-1.15988E-004	11	...........	-327.56
	304	152.5	8.13310E-001	3.56283E-002	0.00000E+000	8.14200E-001	-1.11388E-004	11	...........	-327.56
	342	171.5	8.51300E-001	3.40341E-002	0.00000E+000	8.52200E-001	-1.14555E-004	11	...........	-327.56
	380	190.5	8.89210E-001	3.31480E-002	0.00000E+000	8.90200E-001	-1.14855E-004	11	...........	-327.56
	418	209.5	9.27208E-001	3.31182E-002	0.00000E+000	9.28200E-001	-1.14121E-004	11	...........	-327.56
	456	228.5	9.65139E-001	3.38057E-002	0.00000E+000	9.66200E-001	-1.15388E-004	11	...........	-327.56
	494	247.5	1.00315E+000	3.66263E-002	0.00000E+000	1.00420E+000	-1.12088E-004	11	...........	-327.56
	532	266.5	1.04104E+000	4.22564E-002	0.00000E+000	1.04220E+000	-1.15255E-004	11	...........	-327.56
	570	285.5	1.07905E+000	5.55738E-002	0.00000E+000	1.08020E+000	-1.08155E-004	11	...........	-327.56
	608	304.5	1.11693E+000	7.54283E-002	0.00000E+000	1.11820E+000	-1.12955E-004	11	...........	-327.56
	646	323.5	1.15489E+000	1.03566E-001	0.00000E+000	1.15620E+000	-1.13788E-004	11	...........	-327.56
	684	342.5	1.19272E+000	1.50475E-001	0.00000E+000	1.19420E+000	-1.11455E-004	11	...........	-327.56
	722	361.5	1.23064E+000	2.22609E-001	0.00000E+000	1.23220E+000	-1.12621E-004	11	...........	-327.56
	760	380.5	1.26875E+000	2.73095E-001	0.00000E+000	1.27020E+000	-1.18055E-004	12	...........	-327.56
	798	399.5	1.30672E+000	3.79345E-001	0.00000E+000	1.30820E+000	-1.12388E-004	12	...........	-327.56
	836	418.5	1.34448E+000	5.28219E-001	0.00000E+000	1.34620E+000	-1.13455E-004	12	...........	-327.56
	874	437.5	1.38239E+000	6.83033E-001	0.00000E+000	1.38420E+000	-1.12988E-004	12	...........	-327.56
	912	456.5	1.42030E+000	8.59337E-001	0.00000E+000	1.42220E+000	-1.11888E-004	12	...........	-327.56
	950	475.5	1.45815E+000	1.01959E+000	0.00000E+000	1.46020E+000	-1.14855E-004	12	...........	-327.56
	988	494.5	1.49607E+000	1.15421E+000	0.00000E+000	1.49820E+000	-1.15555E-004	12	...........	-327.56
	1026	513.5	1.53395E+000	1.27797E+000	0.00000E+000	1.53620E+000	-1.14455E-004	12	...........	-327.56
	1064	532.5	1.57188E+000	1.40998E+000	0.00000E+000	1.57420E+000	-1.10488E-004	12	...........	-327.56
	1102	551.5	1.60977E+000	1.49889E+000	0.00000E+000	1.61220E+000	-1.14855E-004	12	...........	-327.56
	1140	570.5	1.64771E+000	1.62842E+000	0.00000E+000	1.65020E+000	-1.14255E-004	12	...........	-327.56
	1178	589.5	1.68564E+000	1.73825E+000	0.00000E+000	1.68820E+000	-1.14455E-004	12	...........	-327.56
	1216	608.5	1.67170E+000	1.70327E+000	0.00000E+000	1.67420E+000	-1.13721E-004	12	...........	-327.56
	1254	627.5	1.63374E+000	1.59311E+000	0.00000E+000	1.63620E+000	-1.15355E-004	12	...........	-327.56
	1292	646.5	1.59583E+000	1.47996E+000	0.00000E+000	1.59820E+000	-1.13888E-004	12	...........	-327.56
	1330	665.5	1.55786E+000	1.35776E+000	0.00000E+000	1.56020E+000	-1.14588E-004	12	...........	-327.56
	1368	684.5	1.51999E+000	1.24667E+000	0.00000E+000	1.52220E+000	-1.16321E-004	12	...........	-327.56
	1406	703.5	1.48205E+000	1.13876E+000	0.00000E+000	1.48420E+000	-1.16288E-004	12	...........	-327.56
	1444	722.5	1.44418E+000	1.02842E+000	0.00000E+000	1.44620E+000	-1.15821E-004	12	...........	-327.56
	1482	741.5	1.40628E+000	9.21909E-001	0.00000E+000	1.40820E+000	-1.13021E-004	12	...........	-327.56
	1520	760.5	1.36838E+000	8.13961E-001	0.00000E+000	1.37020E+000	-1.13655E-004	12	...........	-327.56
	1558	779.5	1.33046E+000	7.06123E-001	0.00000E+000	1.33220E+000	-1.16921E-004	12	...........	-327.56
	1596	798.5	1.29259E+000	6.01730E-001	0.00000E+000	1.29420E+000	-1.09088E-004	12	...........	-327.56
	1634	817.5	1.25466E+000	4.97690E-001	0.00000E+000	1.25620E+000	-1.10655E-004	12	...........	-327.56
	1672	836.5	1.21667E+000	4.02225E-001	0.00000E+000	1.21820E+000	-1.14021E-004	12	...........	-327.56
	1710	855.5	1.17885E+000	3.06383E-001	0.00000E+000	1.18020E+000	-1.13188E-004	12	...........	-327.56
[...]
	10303	5152	8.11928E-001	3.99224E-001	0.00000E+000	8.13000E-001	-1.20021E-004	12	...........	-327.56
	10329	5165	8.37926E-001	2.90273E-001	0.00000E+000	8.39000E-001	-1.18588E-004	12	...........	-327.56
	10355	5178	8.63735E-001	2.26439E-001	0.00000E+000	8.65000E-001	-1.17221E-004	11	...........	-327.56
	10381	5191	8.89767E-001	1.96038E-001	0.00000E+000	8.91000E-001	-1.19421E-004	11	...........	-327.56
	10407	5204	9.15766E-001	1.79152E-001	0.00000E+000	9.17000E-001	-1.13455E-004	11	...........	-327.56
	10433	5217	9.41747E-001	1.68556E-001	0.00000E+000	9.43000E-001	-1.22221E-004	11	...........	-327.56
	10459	5230	9.67768E-001	1.61386E-001	0.00000E+000	9.69000E-001	-1.21455E-004	11	...........	-327.56
	10485	5243	9.93562E-001	2.49101E-001	0.00000E+000	9.95000E-001	-1.19355E-004	11	...........	-327.56
	10511	5256	1.01964E+000	1.94031E-001	0.00000E+000	1.02100E+000	-1.18588E-004	11	...........	-327.56
	10537	5269	1.04559E+000	1.99854E-001	0.00000E+000	1.04700E+000	-1.16688E-004	11	...........	-327.56
	10563	5282	1.07157E+000	2.04763E-001	0.00000E+000	1.07300E+000	-1.12488E-004	11	...........	-327.56
	10589	5295	1.09754E+000	2.29847E-001	0.00000E+000	1.09900E+000	-1.21055E-004	11	...........	-327.56
	10615	5308	1.12347E+000	2.62619E-001	0.00000E+000	1.12500E+000	-1.19555E-004	11	...........	-327.56
	10641	5321	1.14966E+000	2.96553E-001	0.00000E+000	1.15100E+000	-1.20155E-004	12	...........	-327.56
	10667	5334	1.17561E+000	3.40304E-001	0.00000E+000	1.17700E+000	-1.22421E-004	12	...........	-327.56
	10693	5347	1.20156E+000	3.90361E-001	0.00000E+000	1.20300E+000	-1.24088E-004	12	...........	-327.56
	10719	5360	1.22753E+000	4.44789E-001	0.00000E+000	1.22900E+000	-1.20055E-004	12	...........	-327.56
	10745	5373	1.25345E+000	5.14317E-001	0.00000E+000	1.25500E+000	-1.20155E-004	12	...........	-327.56
	10771	5386	1.27942E+000	5.71509E-001	0.00000E+000	1.28100E+000	-1.18255E-004	12	...........	-327.56
	10797	5399	1.30535E+000	6.40035E-001	0.00000E+000	1.30700E+000	-1.19321E-004	12	...........	-327.56
	10823	5412	1.33122E+000	7.34706E-001	0.00000E+000	1.33300E+000	-1.22988E-004	12	...........	-327.56
	10849	5425	1.35714E+000	8.38345E-001	0.00000E+000	1.35900E+000	-1.20621E-004	12	...........	-327.56
	10875	5438	1.38311E+000	8.95447E-001	0.00000E+000	1.38500E+000	-1.16221E-004	12	...........	-327.56
	10901	5451	1.40905E+000	9.59995E-001	0.00000E+000	1.41100E+000	-1.19221E-004	12	...........	-327.56
	10927	5464	1.43498E+000	1.05436E+000	0.00000E+000	1.43700E+000	-1.19121E-004	12	...........	-327.56
	10953	5477	1.46093E+000	1.12001E+000	0.00000E+000	1.46300E+000	-1.21055E-004	12	...........	-327.56
	10979	5490	1.48685E+000	1.20575E+000	0.00000E+000	1.48900E+000	-1.18855E-004	12	...........	-327.56
	11005	5503	1.51280E+000	1.29432E+000	0.00000E+000	1.51500E+000	-1.19788E-004	12	...........	-327.56
	11031	5516	1.53871E+000	1.37792E+000	0.00000E+000	1.54100E+000	-1.18955E-004	12	...........	-327.56
	11057	5529	1.56470E+000	1.46591E+000	0.00000E+000	1.56700E+000	-1.21355E-004	12	...........	-327.56
	11083	5542	1.59061E+000	1.56753E+000	0.00000E+000	1.59300E+000	-1.18655E-004	12	...........	-327.56
	11109	5555	1.61658E+000	1.66675E+000	0.00000E+000	1.61900E+000	-1.17588E-004	12	...........	-327.56
	11135	5568	1.64251E+000	1.76128E+000	0.00000E+000	1.64500E+000	-1.20955E-004	12	...........	-327.56
	11161	5581	1.66847E+000	1.83973E+000	0.00000E+000	1.67100E+000	-1.16188E-004	12	...........	-327.56
	11187	5594	1.69445E+000	1.94792E+000	0.00000E+000	1.69700E+000	-1.18788E-004	12	...........	-327.56
	11190	5595.5	1.69747E+000	1.95959E+000	0.00000E+000	1.70000E+000	-1.19388E-004	12	...........	-327.56