Folder: ectools/testing/data (part 12)

File: 240902_21_MCL13_cspWE_CV2_750C_CO2.DTA
EXPLAIN
TAG	CV
TITLE	LABEL	Cyclic Voltammetry	Test Identifier
DATE	LABEL	9/3/2024	Date
TIME	LABEL	21:04:05	Time
NOTES	NOTES	5	Notes...
	cswWE - carbon steel wire
cspWE - carbon steel plate 2x2 tapered

Carbon steel plate counter electrode
Carbon steel wire reference electrode
PSTAT	PSTAT	REF3000-48128	Potentiostat
VINIT	POTEN	0.00000E+000	T	Initial E (V)
VLIMIT1	POTEN	1.70000E+000	F	Scan Limit 1 (V)
VLIMIT2	POTEN	-1.00000E+000	F	Scan Limit 2 (V)
VFINAL	POTEN	1.70000E+000	F	Final E (V)
SCANRATE	QUANT	2.00000E+000	Scan Rate (mV/s)
STEPSIZE	QUANT	1.00000E+000	Step Size (mV)
CYCLES	IQUANT	2	Cycles (#)
IMODE	SELECTOR	0	I/E Range Mode
IRANGE	QUANT	3.00000E-001	Max Current (mA)
AREA	QUANT	1.00000E+000	Sample Area (cm^2)
EQDELAY	QUANT	0.00000E+000	Equil. Time (s)
IRCOMP	SELECTOR	0	IRComp
PFCOR	QUANT	5.00000E+001	PF Corr. (ohm)
SAMPLINGMODE	SELECTOR	1	Sampling Mode
EOC	QUANT	0.4463651	Open Circuit (V)
ELECTRODETYPE	SELECTOR	0	Electrode Type
STRIPPING	TOGGLE	F	Used for Stripping
SEQUENCER	TOGGLE	TRUE	Run as Sequence
PSTATMODEL	IQUANT	5	Pstat Model
PSTATSECTION	LABEL	REF3000-48128	Pstat Section
PSTATSERIALNO	LABEL	48128	Pstat Serial Number
CTRLMODE	IQUANT	1	Control Mode
ELECTROMETER	IQUANT	0	RE=0 or CS=1
IESTAB	IQUANT	2	I/E Stability
CASPEED	IQUANT	4	Control Amp Speed
CONVENTION	IQUANT	1	Current Convention
ICHRANGE	IQUANT	2	Ich Range
ICHRANGEMODE	TOGGLE	F	Ich Auto Range
ICHOFFSETENABLE	TOGGLE	F	Ich Offset Enable
ICHOFFSET	QUANT	0	Ich Offset (V)
ICHFILTER	IQUANT	3	Ich Filter
VCHRANGE	IQUANT	2	Vch Range
VCHRANGEMODE	TOGGLE	F	Vch Auto Range
VCHOFFSETENABLE	TOGGLE	F	Vch Offset Enable
VCHOFFSET	QUANT	0	Vch Offset (V)
VCHFILTER	IQUANT	3	Vch Filter
ACHRANGE	IQUANT	2	Ach Range
ACHOFFSETENABLE	TOGGLE	F	Ach Offset Enable
ACHOFFSET	QUANT	0	Ach Offset (V)
ACHFILTER	IQUANT	1	Ach Filter
IERANGELOWERLIMIT	IQUANT	2	I/E Range Lower Limit
IERANGEMODE	TOGGLE	T	I/E AutoRange
IERANGE	IQUANT	9	I/E Range
POSFEEDENABLE	TOGGLE	F	Positive Feedback IR Comp
POSFEEDRESISTANCE	QUANT	0	Positive Feedback Resistance (ohm)
ACHSELECT	IQUANT	4	Ach Select
SENSECABLEID	IQUANT	14	Sense Cable ID
PWRCABLEID	IQUANT	7	Power Cable ID
DCCALDATE	LABEL	8/16/2024	DC Calibration Date
ACCALDATE	LABEL	8/16/2024	AC Calibration Date
THERMOSELECT	IQUANT	1	Thermo Select
FRAMEWORKVERSION	LABEL	7.10.3	Framework Version
INSTRUMENTVERSION	LABEL	4.91	Instrument Version
COMMVERSION	LABEL	5.10	Communications Version
CPUPLDVERSION	LABEL	6.00	CPU PLD Version
CTRLPLDVERSION	LABEL	3.21	CTRL PLD Version
PSTATPLDVERSION	LABEL	0.00	PSTAT PLD Version
COMPLIANCEVOLTAGE	IQUANT	0	Compliance Voltage
CURVE1	TABLE
	Pt	T	Vf	Im	Vu	Sig	Ach	IERange	Over	Temp
	#	s	V vs. Ref.	A	V	V	V	#	bits	deg C
	0	0.5	4.45541E-001	2.78202E-003	0.00000E+000	4.46350E-001	-1.05155E-004	9	...........	-327.56
	40	20.5	4.85725E-001	5.55635E-002	0.00000E+000	4.86350E-001	-1.11555E-004	11	...........	-327.56
	80	40.5	5.25540E-001	8.29195E-002	0.00000E+000	5.26350E-001	-1.20488E-004	11	...........	-327.56
	120	60.5	5.65572E-001	1.00076E-001	0.00000E+000	5.66350E-001	-1.19821E-004	11	...........	-327.56
	160	80.5	6.05482E-001	1.13699E-001	0.00000E+000	6.06350E-001	-1.17588E-004	11	...........	-327.56
	200	100.5	6.45504E-001	1.20388E-001	0.00000E+000	6.46350E-001	-1.17688E-004	11	...........	-327.56
	240	120.5	6.85412E-001	1.19479E-001	0.00000E+000	6.86350E-001	-1.17221E-004	11	...........	-327.56
	280	140.5	7.25432E-001	1.12145E-001	0.00000E+000	7.26350E-001	-1.19021E-004	11	...........	-327.56
	320	160.5	7.65372E-001	1.02841E-001	0.00000E+000	7.66350E-001	-1.23388E-004	11	...........	-327.56
	360	180.5	8.05420E-001	9.48377E-002	0.00000E+000	8.06350E-001	-1.17121E-004	11	...........	-327.56
	400	200.5	8.45328E-001	8.99727E-002	0.00000E+000	8.46350E-001	-1.19221E-004	11	...........	-327.56
	440	220.5	8.85229E-001	8.70960E-002	0.00000E+000	8.86350E-001	-1.17855E-004	11	...........	-327.56
	480	240.5	9.25249E-001	8.69650E-002	0.00000E+000	9.26350E-001	-1.14121E-004	11	...........	-327.56
	520	260.5	9.65176E-001	9.10853E-002	0.00000E+000	9.66350E-001	-1.17988E-004	11	...........	-327.56
	560	280.5	1.00519E+000	1.00977E-001	0.00000E+000	1.00635E+000	-1.19288E-004	11	...........	-327.56
	600	300.5	1.04506E+000	1.20937E-001	0.00000E+000	1.04635E+000	-1.17288E-004	11	...........	-327.56
	640	320.5	1.08504E+000	1.55457E-001	0.00000E+000	1.08635E+000	-1.14855E-004	11	...........	-327.56
	680	340.5	1.12489E+000	2.03564E-001	0.00000E+000	1.12635E+000	-1.16988E-004	11	...........	-327.56
	720	360.5	1.16476E+000	2.52047E-001	0.00000E+000	1.16635E+000	-1.14055E-004	11	...........	-327.56
	760	380.5	1.20496E+000	3.11743E-001	0.00000E+000	1.20635E+000	-1.22855E-004	12	...........	-327.56
	800	400.5	1.24484E+000	3.83166E-001	0.00000E+000	1.24635E+000	-1.22388E-004	12	...........	-327.56
	840	420.5	1.28481E+000	4.78956E-001	0.00000E+000	1.28635E+000	-1.21055E-004	12	...........	-327.56
	880	440.5	1.32472E+000	6.07512E-001	0.00000E+000	1.32635E+000	-1.20755E-004	12	...........	-327.56
	920	460.5	1.36456E+000	7.52463E-001	0.00000E+000	1.36635E+000	-1.17788E-004	12	...........	-327.56
	960	480.5	1.40438E+000	9.09992E-001	0.00000E+000	1.40635E+000	-1.20888E-004	12	...........	-327.56
	1000	500.5	1.44430E+000	1.05660E+000	0.00000E+000	1.44635E+000	-1.22121E-004	12	...........	-327.56
	1040	520.5	1.48418E+000	1.20281E+000	0.00000E+000	1.48635E+000	-1.23555E-004	12	...........	-327.56
	1080	540.5	1.52402E+000	1.34867E+000	0.00000E+000	1.52635E+000	-1.23188E-004	12	...........	-327.56
	1120	560.5	1.56397E+000	1.48455E+000	0.00000E+000	1.56635E+000	-1.15121E-004	12	...........	-327.56
	1160	580.5	1.60384E+000	1.62959E+000	0.00000E+000	1.60635E+000	-1.16921E-004	12	...........	-327.56
	1200	600.5	1.64382E+000	1.79043E+000	0.00000E+000	1.64635E+000	-1.16321E-004	12	...........	-327.56
	1240	620.5	1.68372E+000	1.92852E+000	0.00000E+000	1.68635E+000	-1.20288E-004	12	...........	-327.56
	1280	640.5	1.67181E+000	1.89240E+000	0.00000E+000	1.67435E+000	-1.17155E-004	12	...........	-327.56
	1320	660.5	1.63188E+000	1.80426E+000	0.00000E+000	1.63435E+000	-1.20188E-004	12	...........	-327.56
	1360	680.5	1.59193E+000	1.68922E+000	0.00000E+000	1.59435E+000	-1.19555E-004	12	...........	-327.56
	1400	700.5	1.55194E+000	1.56762E+000	0.00000E+000	1.55435E+000	-1.19288E-004	12	...........	-327.56
	1440	720.5	1.51204E+000	1.45454E+000	0.00000E+000	1.51435E+000	-1.24221E-004	12	...........	-327.56
	1480	740.5	1.47211E+000	1.32697E+000	0.00000E+000	1.47435E+000	-1.22188E-004	12	...........	-327.56
	1520	760.5	1.43221E+000	1.21030E+000	0.00000E+000	1.43435E+000	-1.19121E-004	12	...........	-327.56
	1560	780.5	1.39233E+000	1.09460E+000	0.00000E+000	1.39435E+000	-1.18921E-004	12	...........	-327.56
	1600	800.5	1.35237E+000	9.65355E-001	0.00000E+000	1.35435E+000	-1.19255E-004	12	...........	-327.56
	1640	820.5	1.31256E+000	8.55852E-001	0.00000E+000	1.31435E+000	-1.16355E-004	12	...........	-327.56
	1680	840.5	1.27261E+000	7.32766E-001	0.00000E+000	1.27435E+000	-1.15755E-004	12	...........	-327.56
	1720	860.5	1.23276E+000	6.07133E-001	0.00000E+000	1.23435E+000	-1.14888E-004	12	...........	-327.56
	1760	880.5	1.19277E+000	4.92547E-001	0.00000E+000	1.19435E+000	-1.20088E-004	12	...........	-327.56
	1800	900.5	1.15295E+000	3.69074E-001	0.00000E+000	1.15435E+000	-1.14455E-004	12	...........	-327.56
[...]
	11091	5546	7.35358E-001	1.45148E+000	0.00000E+000	7.37000E-001	-1.20721E-004	12	...........	-327.56
	11119	5560	7.63341E-001	1.48754E+000	0.00000E+000	7.65000E-001	-1.20521E-004	12	...........	-327.56
	11147	5574	7.91293E-001	1.53209E+000	0.00000E+000	7.93000E-001	-1.19921E-004	12	...........	-327.56
	11175	5588	8.19231E-001	1.57881E+000	0.00000E+000	8.21000E-001	-1.18555E-004	12	...........	-327.56
	11203	5602	8.47220E-001	1.62171E+000	0.00000E+000	8.49000E-001	-1.19255E-004	12	...........	-327.56
	11231	5616	8.75189E-001	1.63655E+000	0.00000E+000	8.77000E-001	-1.17355E-004	12	...........	-327.56
	11259	5630	9.03185E-001	1.63382E+000	0.00000E+000	9.05000E-001	-1.15221E-004	12	...........	-327.56
	11287	5644	9.31134E-001	1.63400E+000	0.00000E+000	9.33000E-001	-1.20121E-004	12	...........	-327.56
	11315	5658	9.59115E-001	1.61407E+000	0.00000E+000	9.61000E-001	-1.16155E-004	12	...........	-327.56
	11343	5672	9.87114E-001	1.55346E+000	0.00000E+000	9.89000E-001	-1.18121E-004	12	...........	-327.56
	11371	5686	1.01508E+000	1.45380E+000	0.00000E+000	1.01700E+000	-1.16621E-004	12	...........	-327.56
	11399	5700	1.04314E+000	1.28433E+000	0.00000E+000	1.04500E+000	-1.19155E-004	12	...........	-327.56
	11427	5714	1.07126E+000	9.85551E-001	0.00000E+000	1.07300E+000	-1.20488E-004	12	...........	-327.56
	11455	5728	1.09943E+000	7.14139E-001	0.00000E+000	1.10100E+000	-1.18355E-004	12	...........	-327.56
	11483	5742	1.12746E+000	6.05108E-001	0.00000E+000	1.12900E+000	-1.17921E-004	12	...........	-327.56
	11511	5756	1.15550E+000	5.53036E-001	0.00000E+000	1.15700E+000	-1.16055E-004	12	...........	-327.56
	11539	5770	1.18347E+000	5.42768E-001	0.00000E+000	1.18500E+000	-1.14488E-004	12	...........	-327.56
	11567	5784	1.21145E+000	5.63497E-001	0.00000E+000	1.21300E+000	-1.14055E-004	12	...........	-327.56
	11595	5798	1.23940E+000	6.15810E-001	0.00000E+000	1.24100E+000	-1.19188E-004	12	...........	-327.56
	11623	5812	1.26729E+000	7.04222E-001	0.00000E+000	1.26900E+000	-1.16821E-004	12	...........	-327.56
	11651	5826	1.29517E+000	7.78718E-001	0.00000E+000	1.29700E+000	-1.14788E-004	12	...........	-327.56
	11679	5840	1.32314E+000	8.65680E-001	0.00000E+000	1.32500E+000	-1.16055E-004	12	...........	-327.56
	11707	5854	1.35102E+000	9.39434E-001	0.00000E+000	1.35300E+000	-1.18288E-004	12	...........	-327.56
	11735	5868	1.37898E+000	1.06756E+000	0.00000E+000	1.38100E+000	-1.17355E-004	12	...........	-327.56
	11763	5882	1.40691E+000	1.10131E+000	0.00000E+000	1.40900E+000	-1.12755E-004	12	...........	-327.56
	11791	5896	1.43480E+000	1.27813E+000	0.00000E+000	1.43700E+000	-1.17421E-004	12	...........	-327.56
	11819	5910	1.46280E+000	1.32177E+000	0.00000E+000	1.46500E+000	-1.12588E-004	12	...........	-327.56
	11847	5924	1.49070E+000	1.44447E+000	0.00000E+000	1.49300E+000	-1.13621E-004	12	...........	-327.56
	11875	5938	1.51868E+000	1.51670E+000	0.00000E+000	1.52100E+000	-1.14955E-004	12	...........	-327.56
	11903	5952	1.54658E+000	1.60380E+000	0.00000E+000	1.54900E+000	-1.14688E-004	12	...........	-327.56
	11931	5966	1.57450E+000	1.69755E+000	0.00000E+000	1.57700E+000	-1.17288E-004	12	...........	-327.56
	11959	5980	1.60241E+000	1.80530E+000	0.00000E+000	1.60500E+000	-1.16121E-004	12	...........	-327.56
	11987	5994	1.63037E+000	1.92727E+000	0.00000E+000	1.63300E+000	-1.14488E-004	12	...........	-327.56
	12015	6008	1.65834E+000	2.04689E+000	0.00000E+000	1.66100E+000	-1.10488E-004	12	...........	-327.56
	12043	6022	1.68635E+000	2.14580E+000	0.00000E+000	1.68900E+000	-1.12521E-004	12	...........	-327.56
	12054	6027.5	1.69739E+000	2.18811E+000	0.00000E+000	1.70000E+000	-1.13821E-004	12	...........	-327.56

File: 240902_22_MCL13_cspWE_CV1_750C_CO2.DTA
EXPLAIN
TAG	CV
TITLE	LABEL	Cyclic Voltammetry	Test Identifier
DATE	LABEL	9/3/2024	Date
TIME	LABEL	22:45:35	Time
NOTES	NOTES	5	Notes...
	cswWE - carbon steel wire
cspWE - carbon steel plate 2x2 tapered

Carbon steel plate counter electrode
Carbon steel wire reference electrode
PSTAT	PSTAT	REF3000-48128	Potentiostat
VINIT	POTEN	0.00000E+000	T	Initial E (V)
VLIMIT1	POTEN	1.70000E+000	F	Scan Limit 1 (V)
VLIMIT2	POTEN	-6.00000E-001	F	Scan Limit 2 (V)
VFINAL	POTEN	1.70000E+000	F	Final E (V)
SCANRATE	QUANT	9.99998E-001	Scan Rate (mV/s)
STEPSIZE	QUANT	1.00000E+000	Step Size (mV)
CYCLES	IQUANT	2	Cycles (#)
IMODE	SELECTOR	0	I/E Range Mode
IRANGE	QUANT	3.00000E-001	Max Current (mA)
AREA	QUANT	1.00000E+000	Sample Area (cm^2)
EQDELAY	QUANT	0.00000E+000	Equil. Time (s)
IRCOMP	SELECTOR	0	IRComp
PFCOR	QUANT	5.00000E+001	PF Corr. (ohm)
SAMPLINGMODE	SELECTOR	1	Sampling Mode
EOC	QUANT	0.3759207	Open Circuit (V)
ELECTRODETYPE	SELECTOR	0	Electrode Type
STRIPPING	TOGGLE	F	Used for Stripping
SEQUENCER	TOGGLE	TRUE	Run as Sequence
PSTATMODEL	IQUANT	5	Pstat Model
PSTATSECTION	LABEL	REF3000-48128	Pstat Section
PSTATSERIALNO	LABEL	48128	Pstat Serial Number
CTRLMODE	IQUANT	1	Control Mode
ELECTROMETER	IQUANT	0	RE=0 or CS=1
IESTAB	IQUANT	2	I/E Stability
CASPEED	IQUANT	4	Control Amp Speed
CONVENTION	IQUANT	1	Current Convention
ICHRANGE	IQUANT	2	Ich Range
ICHRANGEMODE	TOGGLE	F	Ich Auto Range
ICHOFFSETENABLE	TOGGLE	F	Ich Offset Enable
ICHOFFSET	QUANT	0	Ich Offset (V)
ICHFILTER	IQUANT	3	Ich Filter
VCHRANGE	IQUANT	2	Vch Range
VCHRANGEMODE	TOGGLE	F	Vch Auto Range
VCHOFFSETENABLE	TOGGLE	F	Vch Offset Enable
VCHOFFSET	QUANT	0	Vch Offset (V)
VCHFILTER	IQUANT	3	Vch Filter
ACHRANGE	IQUANT	2	Ach Range
ACHOFFSETENABLE	TOGGLE	F	Ach Offset Enable
ACHOFFSET	QUANT	0	Ach Offset (V)
ACHFILTER	IQUANT	1	Ach Filter
IERANGELOWERLIMIT	IQUANT	2	I/E Range Lower Limit
IERANGEMODE	TOGGLE	T	I/E AutoRange
IERANGE	IQUANT	9	I/E Range
POSFEEDENABLE	TOGGLE	F	Positive Feedback IR Comp
POSFEEDRESISTANCE	QUANT	0	Positive Feedback Resistance (ohm)
ACHSELECT	IQUANT	4	Ach Select
SENSECABLEID	IQUANT	14	Sense Cable ID
PWRCABLEID	IQUANT	7	Power Cable ID
DCCALDATE	LABEL	8/16/2024	DC Calibration Date
ACCALDATE	LABEL	8/16/2024	AC Calibration Date
THERMOSELECT	IQUANT	1	Thermo Select
FRAMEWORKVERSION	LABEL	7.10.3	Framework Version
INSTRUMENTVERSION	LABEL	4.91	Instrument Version
COMMVERSION	LABEL	5.10	Communications Version
CPUPLDVERSION	LABEL	6.00	CPU PLD Version
CTRLPLDVERSION	LABEL	3.21	CTRL PLD Version
PSTATPLDVERSION	LABEL	0.00	PSTAT PLD Version
COMPLIANCEVOLTAGE	IQUANT	0	Compliance Voltage
CURVE1	TABLE
	Pt	T	Vf	Im	Vu	Sig	Ach	IERange	Over	Temp
	#	s	V vs. Ref.	A	V	V	V	#	bits	deg C
	0	1	3.74464E-001	3.29009E-003	0.00000E+000	3.75900E-001	-1.02738E-004	9	....ih..i..	-327.56
	37	38	4.12200E-001	1.41688E-001	0.00000E+000	4.12900E-001	-1.17838E-004	11	...........	-327.56
	74	75	4.49005E-001	2.08681E-001	0.00000E+000	4.49900E-001	-1.15305E-004	11	...........	-327.56
	111	112	4.85920E-001	2.59056E-001	0.00000E+000	4.86900E-001	-1.11588E-004	11	...........	-327.56
	148	149	5.23161E-001	2.86091E-001	0.00000E+000	5.23900E-001	-1.16721E-004	12	...........	-327.56
	185	186	5.60085E-001	3.04487E-001	0.00000E+000	5.60900E-001	-1.17755E-004	12	...........	-327.56
	222	223	5.97119E-001	3.12673E-001	0.00000E+000	5.97900E-001	-1.17471E-004	12	...........	-327.56
	259	260	6.34024E-001	3.15053E-001	0.00000E+000	6.34900E-001	-1.15405E-004	12	...........	-327.56
	296	297	6.71051E-001	3.10798E-001	0.00000E+000	6.71900E-001	-1.16088E-004	12	...........	-327.56
	333	334	7.07973E-001	2.96654E-001	0.00000E+000	7.08900E-001	-1.17021E-004	12	...........	-327.56
	370	371	7.44976E-001	2.75512E-001	0.00000E+000	7.45900E-001	-1.21471E-004	12	...........	-327.56
	407	408	7.81884E-001	2.50213E-001	0.00000E+000	7.82900E-001	-1.21621E-004	12	...........	-327.56
	444	445	8.18686E-001	2.28148E-001	0.00000E+000	8.19900E-001	-1.15821E-004	11	...........	-327.56
	481	482	8.55703E-001	2.12022E-001	0.00000E+000	8.56900E-001	-1.15271E-004	11	...........	-327.56
	518	519	8.92684E-001	2.01312E-001	0.00000E+000	8.93900E-001	-1.18171E-004	11	...........	-327.56
	555	556	9.29622E-001	1.95087E-001	0.00000E+000	9.30900E-001	-1.17605E-004	11	...........	-327.56
	592	593	9.66571E-001	1.92644E-001	0.00000E+000	9.67900E-001	-1.16871E-004	11	...........	-327.56
	629	630	1.00358E+000	1.96236E-001	0.00000E+000	1.00490E+000	-1.17288E-004	11	...........	-327.56
	666	667	1.04043E+000	2.11273E-001	0.00000E+000	1.04190E+000	-1.15455E-004	11	...........	-327.56
	703	704	1.07739E+000	2.71803E-001	0.00000E+000	1.07890E+000	-1.13271E-004	11	...........	-327.56
	740	741	1.11455E+000	2.96386E-001	0.00000E+000	1.11590E+000	-1.24538E-004	12	...........	-327.56
	777	778	1.15150E+000	3.55218E-001	0.00000E+000	1.15290E+000	-1.22155E-004	12	...........	-327.56
	814	815	1.18847E+000	4.20790E-001	0.00000E+000	1.18990E+000	-1.22621E-004	12	...........	-327.56
	851	852	1.22542E+000	4.90314E-001	0.00000E+000	1.22690E+000	-1.23871E-004	12	...........	-327.56
	888	889	1.26236E+000	5.71011E-001	0.00000E+000	1.26390E+000	-1.22255E-004	12	...........	-327.56
	925	926	1.29919E+000	6.95204E-001	0.00000E+000	1.30090E+000	-1.24221E-004	12	...........	-327.56
	962	963	1.33607E+000	8.79115E-001	0.00000E+000	1.33790E+000	-1.23488E-004	12	...........	-327.56
	999	1000	1.37281E+000	1.06780E+000	0.00000E+000	1.37490E+000	-1.23338E-004	12	...........	-327.56
	1036	1037	1.40981E+000	1.22193E+000	0.00000E+000	1.41190E+000	-1.25405E-004	12	...........	-327.56
	1073	1074	1.44663E+000	1.35777E+000	0.00000E+000	1.44890E+000	-1.25238E-004	12	...........	-327.56
	1110	1111	1.48360E+000	1.48239E+000	0.00000E+000	1.48590E+000	-1.23005E-004	12	...........	-327.56
	1147	1148	1.52061E+000	1.59623E+000	0.00000E+000	1.52290E+000	-1.19271E-004	12	...........	-327.56
	1184	1185	1.55744E+000	1.69448E+000	0.00000E+000	1.55990E+000	-1.19788E-004	12	...........	-327.56
	1221	1222	1.59442E+000	1.79598E+000	0.00000E+000	1.59690E+000	-1.22738E-004	12	...........	-327.56
	1258	1259	1.63134E+000	1.90501E+000	0.00000E+000	1.63390E+000	-1.22938E-004	12	...........	-327.56
	1295	1296	1.66834E+000	2.00181E+000	0.00000E+000	1.67090E+000	-1.18288E-004	12	...........	-327.56
	1332	1333	1.68928E+000	2.06289E+000	0.00000E+000	1.69190E+000	-1.18671E-004	12	...........	-327.56
	1369	1370	1.65225E+000	1.95122E+000	0.00000E+000	1.65490E+000	-1.21871E-004	12	...........	-327.56
	1406	1407	1.61542E+000	1.83261E+000	0.00000E+000	1.61790E+000	-1.17738E-004	12	...........	-327.56
	1443	1444	1.57840E+000	1.71598E+000	0.00000E+000	1.58090E+000	-1.17038E-004	12	...........	-327.56
	1480	1481	1.54152E+000	1.60514E+000	0.00000E+000	1.54390E+000	-1.12288E-004	12	...........	-327.56
	1517	1518	1.50455E+000	1.50099E+000	0.00000E+000	1.50690E+000	-1.15171E-004	12	...........	-327.56
	1554	1555	1.46769E+000	1.39911E+000	0.00000E+000	1.46990E+000	-1.16871E-004	12	...........	-327.56
	1591	1592	1.43071E+000	1.28036E+000	0.00000E+000	1.43290E+000	-1.13871E-004	12	...........	-327.56
	1628	1629	1.39385E+000	1.17200E+000	0.00000E+000	1.39590E+000	-1.15705E-004	12	...........	-327.56
	1665	1666	1.35689E+000	1.07930E+000	0.00000E+000	1.35890E+000	-1.16405E-004	12	...........	-327.56
	1702	1703	1.31995E+000	9.73502E-001	0.00000E+000	1.32190E+000	-1.14138E-004	12	...........	-327.56
[...]
	9689	9690	8.63943E-001	3.34567E-001	0.00000E+000	8.65000E-001	-1.27988E-004	12	...........	-327.56
	9713	9714	8.87939E-001	2.98390E-001	0.00000E+000	8.89000E-001	-1.32288E-004	12	...........	-327.56
	9737	9738	9.11942E-001	2.72956E-001	0.00000E+000	9.13000E-001	-1.30438E-004	12	...........	-327.56
	9761	9762	9.35924E-001	2.55182E-001	0.00000E+000	9.37000E-001	-1.31621E-004	12	...........	-327.56
	9785	9786	9.59917E-001	2.42550E-001	0.00000E+000	9.61000E-001	-1.27738E-004	12	...........	-327.56
	9809	9810	9.83659E-001	2.31836E-001	0.00000E+000	9.85000E-001	-1.25138E-004	11	...........	-327.56
	9833	9834	1.00766E+000	2.22862E-001	0.00000E+000	1.00900E+000	-1.25738E-004	11	...........	-327.56
	9857	9858	1.03163E+000	2.16306E-001	0.00000E+000	1.03300E+000	-1.24588E-004	11	...........	-327.56
	9881	9882	1.05559E+000	2.33323E-001	0.00000E+000	1.05700E+000	-1.24488E-004	11	...........	-327.56
	9905	9906	1.07956E+000	2.42277E-001	0.00000E+000	1.08100E+000	-1.27721E-004	11	...........	-327.56
	9929	9930	1.10379E+000	2.78185E-001	0.00000E+000	1.10500E+000	-1.24538E-004	12	...........	-327.56
	9953	9954	1.12769E+000	3.08209E-001	0.00000E+000	1.12900E+000	-1.28338E-004	12	...........	-327.56
	9977	9978	1.15162E+000	3.51576E-001	0.00000E+000	1.15300E+000	-1.28738E-004	12	...........	-327.56
	10001	10002	1.17558E+000	4.03077E-001	0.00000E+000	1.17700E+000	-1.31005E-004	12	...........	-327.56
	10025	10026	1.19952E+000	4.58486E-001	0.00000E+000	1.20100E+000	-1.29988E-004	12	...........	-327.56
	10049	10050	1.22347E+000	5.12953E-001	0.00000E+000	1.22500E+000	-1.29405E-004	12	...........	-327.56
	10073	10074	1.24743E+000	5.71402E-001	0.00000E+000	1.24900E+000	-1.26588E-004	12	...........	-327.56
	10097	10098	1.27140E+000	5.90634E-001	0.00000E+000	1.27300E+000	-1.30988E-004	12	...........	-327.56
	10121	10122	1.29527E+000	7.07911E-001	0.00000E+000	1.29700E+000	-1.27721E-004	12	...........	-327.56
	10145	10146	1.31920E+000	7.81463E-001	0.00000E+000	1.32100E+000	-1.31371E-004	12	...........	-327.56
	10169	10170	1.34320E+000	8.42138E-001	0.00000E+000	1.34500E+000	-1.28138E-004	12	...........	-327.56
	10193	10194	1.36713E+000	9.49663E-001	0.00000E+000	1.36900E+000	-1.25971E-004	12	...........	-327.56
	10217	10218	1.39107E+000	1.00453E+000	0.00000E+000	1.39300E+000	-1.22921E-004	12	...........	-327.56
	10241	10242	1.41500E+000	1.11844E+000	0.00000E+000	1.41700E+000	-1.24538E-004	12	...........	-327.56
	10265	10266	1.43892E+000	1.17677E+000	0.00000E+000	1.44100E+000	-1.22655E-004	12	...........	-327.56
	10289	10290	1.46285E+000	1.29053E+000	0.00000E+000	1.46500E+000	-1.27771E-004	12	...........	-327.56
	10313	10314	1.48685E+000	1.25079E+000	0.00000E+000	1.48900E+000	-1.23755E-004	12	...........	-327.56
	10337	10338	1.51075E+000	1.40066E+000	0.00000E+000	1.51300E+000	-1.25121E-004	12	...........	-327.56
	10361	10362	1.53470E+000	1.49652E+000	0.00000E+000	1.53700E+000	-1.26521E-004	12	...........	-327.56
	10385	10386	1.55861E+000	1.56236E+000	0.00000E+000	1.56100E+000	-1.26321E-004	12	...........	-327.56
	10409	10410	1.58259E+000	1.62747E+000	0.00000E+000	1.58500E+000	-1.27355E-004	12	...........	-327.56
	10433	10434	1.60654E+000	1.67928E+000	0.00000E+000	1.60900E+000	-1.27871E-004	12	...........	-327.56
	10457	10458	1.63050E+000	1.73112E+000	0.00000E+000	1.63300E+000	-1.30171E-004	12	...........	-327.56
	10481	10482	1.65442E+000	1.80580E+000	0.00000E+000	1.65700E+000	-1.26655E-004	12	...........	-327.56
	10505	10506	1.67837E+000	1.93556E+000	0.00000E+000	1.68100E+000	-1.26221E-004	12	...........	-327.56
	10524	10525	1.69746E+000	1.97583E+000	0.00000E+000	1.70000E+000	-1.25771E-004	12	...........	-327.56