Folder: ectools/testing/data

Note: README.md
# ectools
Importing, plotting and working with electrochemistry data

TODO:
* more meta parsing
* scan direction column (red/ox or better naming convension)
* improve plotting
    * "last" cycle
* integration tool

File: 240902_01_MCL13_cswWE_CV20_initial_test.DTA
EXPLAIN
TAG	CV
TITLE	LABEL	Cyclic Voltammetry	Test &Identifier
DATE	LABEL	9/2/2024	Date
TIME	LABEL	15:32:11	Time
NOTES	NOTES	5	&Notes...

	WE: Ag wire
	RE: Ni/NiO
	CE: steel swirl
PSTAT	PSTAT	REF3000-48128	Potentiostat
VINIT	POTEN	0.00000E+000	F	Initial &E (V)
VLIMIT1	POTEN	-1.00000E+000	F	Scan Limit &1 (V)
VLIMIT2	POTEN	1.70000E+000	F	Scan Limit &2 (V)
VFINAL	POTEN	1.70000E+000	F	Final &E (V)
SCANRATE	QUANT	2.00000E+001	&Scan Rate (mV/s)
STEPSIZE	QUANT	1.00000E+000	St&ep Size (mV)
CYCLES	IQUANT	3	C&ycles (#)
IMODE	SELECTOR	0	I/E Range &Mode
IRANGE	QUANT	5.00000E+001	&Max Current (mA)
AREA	QUANT	1.00000E+000	Electrode &Area (cm^2)
ELECTRODETYPE	SELECTOR	1	Electrode Type
STRIPPING	TOGGLE	F	Used for Stripping
CONDIT	TWOPARAM	F	1.50000E+001	0.00000E+000	Conditionin&g	Time(s)	E(V)
DELAY	TWOPARAM	F	3.00000E+001	0.00000E+000	Init. De&lay	Time(s)	Stab.(mV/s)
EQDELAY	QUANT	0.00000E+000	Equil. &Time (s)
IRCOMP	SELECTOR	0	IRCom&p
PFCOR	QUANT	5.00000E+001	PF Corr. (ohm)
SAMPLINGMODE	SELECTOR	1	Sampling &Mode
EOC	QUANT	0	Open Circuit (V)
PSTATMODEL	IQUANT	5	Pstat Model
PSTATSECTION	LABEL	REF3000-48128	Pstat Section
PSTATSERIALNO	LABEL	48128	Pstat Serial Number
CTRLMODE	IQUANT	1	Control Mode
ELECTROMETER	IQUANT	0	RE=0 or CS=1
IESTAB	IQUANT	2	I/E Stability
CASPEED	IQUANT	4	Control Amp Speed
CONVENTION	IQUANT	1	Current Convention
ICHRANGE	IQUANT	2	Ich Range
ICHRANGEMODE	TOGGLE	F	Ich Auto Range
ICHOFFSETENABLE	TOGGLE	F	Ich Offset Enable
ICHOFFSET	QUANT	0	Ich Offset (V)
ICHFILTER	IQUANT	2	Ich Filter
VCHRANGE	IQUANT	3	Vch Range
VCHRANGEMODE	TOGGLE	T	Vch Auto Range
VCHOFFSETENABLE	TOGGLE	F	Vch Offset Enable
VCHOFFSET	QUANT	0	Vch Offset (V)
VCHFILTER	IQUANT	1	Vch Filter
ACHRANGE	IQUANT	2	Ach Range
ACHOFFSETENABLE	TOGGLE	F	Ach Offset Enable
ACHOFFSET	QUANT	0	Ach Offset (V)
ACHFILTER	IQUANT	1	Ach Filter
IERANGELOWERLIMIT	IQUANT	2	I/E Range Lower Limit
IERANGEMODE	TOGGLE	T	I/E AutoRange
IERANGE	IQUANT	11	I/E Range
POSFEEDENABLE	TOGGLE	F	Positive Feedback IR Comp
POSFEEDRESISTANCE	QUANT	0	Positive Feedback Resistance (ohm)
ACHSELECT	IQUANT	1	Ach Select
SENSECABLEID	IQUANT	14	Sense Cable ID
PWRCABLEID	IQUANT	7	Power Cable ID
DCCALDATE	LABEL	8/16/2024	DC Calibration Date
ACCALDATE	LABEL	8/16/2024	AC Calibration Date
THERMOSELECT	IQUANT	1	Thermo Select
FRAMEWORKVERSION	LABEL	7.10.3	Framework Version
INSTRUMENTVERSION	LABEL	4.91	Instrument Version
COMMVERSION	LABEL	5.10	Communications Version
CPUPLDVERSION	LABEL	6.00	CPU PLD Version
CTRLPLDVERSION	LABEL	3.21	CTRL PLD Version
PSTATPLDVERSION	LABEL	0.00	PSTAT PLD Version
COMPLIANCEVOLTAGE	IQUANT	0	Compliance Voltage
CURVE1	TABLE
	Pt	T	Vf	Im	Vu	Sig	Ach	IERange	Over	Temp
	#	s	V vs. Ref.	A	V	V	V	#	bits	deg C
	0	0.05	8.29814E-004	5.61071E-004	0.00000E+000	2.98023E-008	-2.70822E-003	11	...........	-327.56
	38	1.95	-3.78508E-002	-2.61486E-004	0.00000E+000	-3.80000E-002	-2.72055E-003	8	...........	-327.56
	76	3.85	-7.58812E-002	-5.77400E-004	0.00000E+000	-7.60000E-002	-2.70855E-003	9	...........	-327.56
	114	5.75	-1.13812E-001	-8.49856E-004	0.00000E+000	-1.14000E-001	-2.69789E-003	9	...........	-327.56
	152	7.65	-1.51750E-001	-1.12810E-003	0.00000E+000	-1.52000E-001	-2.71089E-003	9	...........	-327.56
	190	9.55	-1.89668E-001	-1.44149E-003	0.00000E+000	-1.90000E-001	-2.70422E-003	9	...........	-327.56
	228	11.45	-2.27589E-001	-1.82485E-003	0.00000E+000	-2.28000E-001	-2.70589E-003	9	...........	-327.56
	266	13.35	-2.65477E-001	-2.36061E-003	0.00000E+000	-2.66000E-001	-2.69822E-003	9	...........	-327.56
	304	15.25	-3.03206E-001	-3.53009E-003	0.00000E+000	-3.04000E-001	-2.70055E-003	10	...........	-327.56
	342	17.15	-3.41111E-001	-1.12744E-002	0.00000E+000	-3.42000E-001	-2.69589E-003	10	...........	-327.56
	380	19.05	-3.78883E-001	-2.89043E-002	0.00000E+000	-3.80000E-001	-2.70622E-003	11	...........	-327.56
	418	20.95	-4.16906E-001	-5.69903E-002	0.00000E+000	-4.18000E-001	-2.70989E-003	11	...........	-327.56
	456	22.85	-4.55032E-001	-9.73830E-002	0.00000E+000	-4.56000E-001	-2.69422E-003	11	...........	-327.56
	494	24.75	-4.93052E-001	-1.48923E-001	0.00000E+000	-4.94000E-001	-2.68955E-003	11	...........	-327.56
	532	26.65	-5.30876E-001	-2.10972E-001	0.00000E+000	-5.32000E-001	-2.68622E-003	11	...........	-327.56
	570	28.55	-5.69052E-001	-2.84054E-001	0.00000E+000	-5.70000E-001	-2.69622E-003	12	...........	-327.56
	608	30.45	-6.06930E-001	-3.71806E-001	0.00000E+000	-6.08000E-001	-2.68989E-003	12	...........	-327.56
	646	32.35	-6.44870E-001	-4.69225E-001	0.00000E+000	-6.46000E-001	-2.69655E-003	12	...........	-327.56
	684	34.25	-6.82745E-001	-5.67416E-001	0.00000E+000	-6.84000E-001	-2.69822E-003	12	...........	-327.56
	722	36.15	-7.20634E-001	-6.73118E-001	0.00000E+000	-7.22000E-001	-2.68855E-003	12	...........	-327.56
	760	38.05	-7.58532E-001	-7.65726E-001	0.00000E+000	-7.60000E-001	-2.70122E-003	12	...........	-327.56
	798	39.95	-7.96473E-001	-8.17492E-001	0.00000E+000	-7.98000E-001	-2.69955E-003	12	...........	-327.56
	836	41.85	-8.34368E-001	-8.55392E-001	0.00000E+000	-8.36000E-001	-2.69322E-003	12	...........	-327.56
	874	43.75	-8.72344E-001	-9.12920E-001	0.00000E+000	-8.74000E-001	-2.68422E-003	12	...........	-327.56
	912	45.65	-9.10238E-001	-9.81645E-001	0.00000E+000	-9.12000E-001	-2.69189E-003	12	...........	-327.56
	950	47.55	-9.48172E-001	-1.05685E+000	0.00000E+000	-9.50000E-001	-2.70355E-003	12	...........	-327.56
	988	49.45	-9.86043E-001	-1.14131E+000	0.00000E+000	-9.88000E-001	-2.68955E-003	12	...........	-327.56
	1026	51.35	-9.72105E-001	-1.09661E+000	0.00000E+000	-9.74000E-001	-2.69289E-003	12	...........	-327.56
	1064	53.25	-9.34258E-001	-9.93435E-001	0.00000E+000	-9.36000E-001	-2.68722E-003	12	...........	-327.56
	1102	55.15	-8.96342E-001	-8.92473E-001	0.00000E+000	-8.98000E-001	-2.69189E-003	12	...........	-327.56
	1140	57.05	-8.58422E-001	-7.92300E-001	0.00000E+000	-8.60000E-001	-2.69455E-003	12	...........	-327.56
	1178	58.95	-8.20512E-001	-6.97379E-001	0.00000E+000	-8.22000E-001	-2.68955E-003	12	...........	-327.56
	1216	60.85	-7.82631E-001	-6.05506E-001	0.00000E+000	-7.84000E-001	-2.68555E-003	12	...........	-327.56
	1254	62.75	-7.44754E-001	-5.17152E-001	0.00000E+000	-7.46000E-001	-2.69522E-003	12	...........	-327.56
	1292	64.65	-7.06818E-001	-4.30754E-001	0.00000E+000	-7.08000E-001	-2.69755E-003	12	...........	-327.56
	1330	66.55	-6.68930E-001	-3.47741E-001	0.00000E+000	-6.70000E-001	-2.68255E-003	12	...........	-327.56
	1368	68.45	-6.30967E-001	-2.67126E-001	0.00000E+000	-6.32000E-001	-2.69489E-003	12	...........	-327.56
	1406	70.35	-5.92883E-001	-1.88379E-001	0.00000E+000	-5.94000E-001	-2.68855E-003	11	...........	-327.56
	1444	72.25	-5.54960E-001	-1.14175E-001	0.00000E+000	-5.56000E-001	-2.67422E-003	11	...........	-327.56
	1482	74.15	-5.16811E-001	-4.45656E-002	0.00000E+000	-5.18000E-001	-2.69189E-003	11	...........	-327.56
	1520	76.05	-4.79392E-001	1.90816E-002	0.00000E+000	-4.80000E-001	-2.68122E-003	10	...........	-327.56
	1558	77.95	-4.41326E-001	8.31029E-002	0.00000E+000	-4.42000E-001	-2.68589E-003	11	...........	-327.56
	1596	79.85	-4.03591E-001	1.65942E-001	0.00000E+000	-4.04000E-001	-2.69522E-003	11	...........	-327.56
	1634	81.75	-3.65842E-001	2.67426E-001	0.00000E+000	-3.66000E-001	-2.67855E-003	11	...........	-327.56
	1672	83.65	-3.27606E-001	3.86824E-001	0.00000E+000	-3.28000E-001	-2.69722E-003	12	...........	-327.56
[...]
	12741	637.1	-5.89633E-002	2.05468E-001	0.00000E+000	-5.90000E-002	-2.67955E-003	11	...........	-327.56
	12797	639.9	-3.01702E-003	2.09132E-001	0.00000E+000	-2.99996E-003	-2.68622E-003	11	...........	-327.56
	12853	642.7	5.29034E-002	2.04844E-001	0.00000E+000	5.30000E-002	-2.68889E-003	11	...........	-327.56
	12909	645.5	1.08809E-001	2.25740E-001	0.00000E+000	1.09000E-001	-2.68455E-003	11	...........	-327.56
	12965	648.3	1.64784E-001	2.03481E-001	0.00000E+000	1.65000E-001	-2.68222E-003	11	...........	-327.56
	13021	651.1	2.20679E-001	2.28820E-001	0.00000E+000	2.21000E-001	-2.67089E-003	11	...........	-327.56
	13077	653.9	2.76710E-001	2.63629E-001	0.00000E+000	2.77000E-001	-2.68789E-003	12	...........	-327.56
	13133	656.7	3.32635E-001	2.90104E-001	0.00000E+000	3.33000E-001	-2.68022E-003	12	...........	-327.56
	13189	659.5	3.88586E-001	3.33787E-001	0.00000E+000	3.89000E-001	-2.67755E-003	12	...........	-327.56
	13245	662.3	4.44514E-001	4.04548E-001	0.00000E+000	4.45000E-001	-2.69189E-003	12	...........	-327.56
	13301	665.1	5.00321E-001	4.75907E-001	0.00000E+000	5.01000E-001	-2.67822E-003	12	...........	-327.56
	13357	667.9	5.56290E-001	4.70380E-001	0.00000E+000	5.57000E-001	-2.67589E-003	12	...........	-327.56
	13413	670.7	6.12391E-001	3.23127E-001	0.00000E+000	6.13000E-001	-2.67555E-003	12	...........	-327.56
	13469	673.5	6.68377E-001	2.98586E-001	0.00000E+000	6.69000E-001	-2.68189E-003	12	...........	-327.56
	13525	676.3	7.24357E-001	2.55953E-001	0.00000E+000	7.25000E-001	-2.67955E-003	12	...........	-327.56
	13581	679.1	7.80123E-001	2.10676E-001	0.00000E+000	7.81000E-001	-2.67422E-003	11	...........	-327.56
	13637	681.9	8.36070E-001	1.74340E-001	0.00000E+000	8.37000E-001	-2.67722E-003	11	...........	-327.56
	13693	684.7	8.92081E-001	1.54886E-001	0.00000E+000	8.93000E-001	-2.67989E-003	11	...........	-327.56
	13749	687.5	9.48047E-001	1.46214E-001	0.00000E+000	9.49000E-001	-2.67655E-003	11	...........	-327.56
	13805	690.3	1.00405E+000	1.38990E-001	0.00000E+000	1.00500E+000	-2.67889E-003	11	...........	-327.56
	13861	693.1	1.06002E+000	1.34735E-001	0.00000E+000	1.06100E+000	-2.68355E-003	11	...........	-327.56
	13917	695.9	1.11591E+000	1.37999E-001	0.00000E+000	1.11700E+000	-2.67122E-003	11	...........	-327.56
	13973	698.7	1.17181E+000	1.52892E-001	0.00000E+000	1.17300E+000	-2.67655E-003	11	...........	-327.56
	14029	701.5	1.22774E+000	1.70450E-001	0.00000E+000	1.22900E+000	-2.67455E-003	11	...........	-327.56
	14085	704.3	1.28368E+000	1.89312E-001	0.00000E+000	1.28500E+000	-2.68722E-003	11	...........	-327.56
	14141	707.1	1.33955E+000	2.20296E-001	0.00000E+000	1.34100E+000	-2.66755E-003	11	...........	-327.56
	14197	709.9	1.39567E+000	2.70613E-001	0.00000E+000	1.39700E+000	-2.68155E-003	12	...........	-327.56
	14253	712.7	1.45158E+000	3.60795E-001	0.00000E+000	1.45300E+000	-2.67555E-003	12	...........	-327.56
	14309	715.5	1.50746E+000	4.73835E-001	0.00000E+000	1.50900E+000	-2.67855E-003	12	...........	-327.56
	14365	718.3	1.56329E+000	5.96661E-001	0.00000E+000	1.56500E+000	-2.67655E-003	12	...........	-327.56
	14421	721.1	1.61915E+000	7.30762E-001	0.00000E+000	1.62100E+000	-2.67689E-003	12	...........	-327.56
	14477	723.9	1.67503E+000	8.53957E-001	0.00000E+000	1.67700E+000	-2.67755E-003	12	...........	-327.56
	14500	725.05	1.69796E+000	9.06487E-001	0.00000E+000	1.70000E+000	-2.68289E-003	12	...........	-327.56
CURVE4	TABLE
	Pt	T	Vf	Im	Vu	Sig	Ach	IERange	Over	Temp
	#	s	V vs. Ref.	A	V	V	V	#	bits	deg C
	14501	725.1	1.69795E+000	9.05316E-001	0.00000E+000	1.70000E+000	-2.67789E-003	12	...........	-327.56

File: 240902_01b_MCL13_cswWE_CV20_initial_test.DTA
EXPLAIN
TAG	CV
TITLE	LABEL	Cyclic Voltammetry	Test &Identifier
DATE	LABEL	9/2/2024	Date
TIME	LABEL	15:45:16	Time
NOTES	NOTES	5	&Notes...

	WE: Ag wire
	RE: Ni/NiO
	CE: steel swirl
PSTAT	PSTAT	REF3000-48128	Potentiostat
VINIT	POTEN	0.00000E+000	F	Initial &E (V)
VLIMIT1	POTEN	1.70000E+000	F	Scan Limit &1 (V)
VLIMIT2	POTEN	-1.00000E+000	F	Scan Limit &2 (V)
VFINAL	POTEN	1.70000E+000	F	Final &E (V)
SCANRATE	QUANT	2.00000E+001	&Scan Rate (mV/s)
STEPSIZE	QUANT	1.00000E+000	St&ep Size (mV)
CYCLES	IQUANT	2	C&ycles (#)
IMODE	SELECTOR	0	I/E Range &Mode
IRANGE	QUANT	5.00000E+001	&Max Current (mA)
AREA	QUANT	1.00000E+000	Electrode &Area (cm^2)
ELECTRODETYPE	SELECTOR	1	Electrode Type
STRIPPING	TOGGLE	F	Used for Stripping
CONDIT	TWOPARAM	F	1.50000E+001	0.00000E+000	Conditionin&g	Time(s)	E(V)
DELAY	TWOPARAM	F	3.00000E+001	0.00000E+000	Init. De&lay	Time(s)	Stab.(mV/s)
EQDELAY	QUANT	0.00000E+000	Equil. &Time (s)
IRCOMP	SELECTOR	0	IRCom&p
PFCOR	QUANT	5.00000E+001	PF Corr. (ohm)
SAMPLINGMODE	SELECTOR	1	Sampling &Mode
EOC	QUANT	0	Open Circuit (V)
PSTATMODEL	IQUANT	5	Pstat Model
PSTATSECTION	LABEL	REF3000-48128	Pstat Section
PSTATSERIALNO	LABEL	48128	Pstat Serial Number
CTRLMODE	IQUANT	1	Control Mode
ELECTROMETER	IQUANT	0	RE=0 or CS=1
IESTAB	IQUANT	2	I/E Stability
CASPEED	IQUANT	4	Control Amp Speed
CONVENTION	IQUANT	1	Current Convention
ICHRANGE	IQUANT	2	Ich Range
ICHRANGEMODE	TOGGLE	F	Ich Auto Range
ICHOFFSETENABLE	TOGGLE	F	Ich Offset Enable
ICHOFFSET	QUANT	0	Ich Offset (V)
ICHFILTER	IQUANT	2	Ich Filter
VCHRANGE	IQUANT	3	Vch Range
VCHRANGEMODE	TOGGLE	T	Vch Auto Range
VCHOFFSETENABLE	TOGGLE	F	Vch Offset Enable
VCHOFFSET	QUANT	0	Vch Offset (V)
VCHFILTER	IQUANT	1	Vch Filter
ACHRANGE	IQUANT	2	Ach Range
ACHOFFSETENABLE	TOGGLE	F	Ach Offset Enable
ACHOFFSET	QUANT	0	Ach Offset (V)
ACHFILTER	IQUANT	1	Ach Filter
IERANGELOWERLIMIT	IQUANT	2	I/E Range Lower Limit
IERANGEMODE	TOGGLE	T	I/E AutoRange
IERANGE	IQUANT	11	I/E Range
POSFEEDENABLE	TOGGLE	F	Positive Feedback IR Comp
POSFEEDRESISTANCE	QUANT	0	Positive Feedback Resistance (ohm)
ACHSELECT	IQUANT	1	Ach Select
SENSECABLEID	IQUANT	14	Sense Cable ID
PWRCABLEID	IQUANT	7	Power Cable ID
DCCALDATE	LABEL	8/16/2024	DC Calibration Date
ACCALDATE	LABEL	8/16/2024	AC Calibration Date
THERMOSELECT	IQUANT	1	Thermo Select
FRAMEWORKVERSION	LABEL	7.10.3	Framework Version
INSTRUMENTVERSION	LABEL	4.91	Instrument Version
COMMVERSION	LABEL	5.10	Communications Version
CPUPLDVERSION	LABEL	6.00	CPU PLD Version
CTRLPLDVERSION	LABEL	3.21	CTRL PLD Version
PSTATPLDVERSION	LABEL	0.00	PSTAT PLD Version
COMPLIANCEVOLTAGE	IQUANT	0	Compliance Voltage
CURVE1	TABLE
	Pt	T	Vf	Im	Vu	Sig	Ach	IERange	Over	Temp
	#	s	V vs. Ref.	A	V	V	V	#	bits	deg C
	0	0.05	8.09814E-004	1.28569E-002	0.00000E+000	2.98023E-008	-2.67555E-003	11	...........	-327.56
	45	2.3	4.53591E-002	5.38866E-003	0.00000E+000	4.50000E-002	-2.67489E-003	10	...........	-327.56
	90	4.55	9.01924E-002	1.44482E-002	0.00000E+000	9.00000E-002	-2.69189E-003	10	...........	-327.56
	135	6.8	1.35078E-001	1.85386E-002	0.00000E+000	1.35000E-001	-2.67989E-003	10	...........	-327.56
	180	9.05	1.80006E-001	2.15775E-002	0.00000E+000	1.80000E-001	-2.68755E-003	10	...........	-327.56
	225	11.3	2.25413E-001	3.58686E-002	0.00000E+000	2.25000E-001	-2.69122E-003	11	...........	-327.56
	270	13.55	2.69906E-001	7.52778E-002	0.00000E+000	2.70000E-001	-2.69155E-003	11	...........	-327.56
	315	15.8	3.14952E-001	7.29353E-002	0.00000E+000	3.15000E-001	-2.69155E-003	11	...........	-327.56
	360	18.05	3.59745E-001	9.46909E-002	0.00000E+000	3.60000E-001	-2.69622E-003	11	...........	-327.56
	405	20.3	4.04568E-001	1.30474E-001	0.00000E+000	4.05000E-001	-2.67889E-003	11	...........	-327.56
	450	22.55	4.49430E-001	1.63160E-001	0.00000E+000	4.50000E-001	-2.66589E-003	11	...........	-327.56
	495	24.8	4.94581E-001	1.28101E-001	0.00000E+000	4.95000E-001	-2.68155E-003	11	...........	-327.56
	540	27.05	5.39674E-001	8.44658E-002	0.00000E+000	5.40000E-001	-2.67955E-003	11	...........	-327.56
	585	29.3	5.84779E-001	6.27862E-002	0.00000E+000	5.85000E-001	-2.67189E-003	11	...........	-327.56
	630	31.55	6.29804E-001	5.11329E-002	0.00000E+000	6.30000E-001	-2.67922E-003	11	...........	-327.56
	675	33.8	6.74876E-001	4.47428E-002	0.00000E+000	6.75000E-001	-2.67889E-003	11	...........	-327.56
	720	36.05	7.19804E-001	4.07015E-002	0.00000E+000	7.20000E-001	-2.68389E-003	11	...........	-327.56
	765	38.3	7.64773E-001	3.77737E-002	0.00000E+000	7.65000E-001	-2.67422E-003	11	...........	-327.56
	810	40.55	8.09770E-001	3.68111E-002	0.00000E+000	8.10000E-001	-2.68222E-003	11	...........	-327.56
	855	42.8	8.54718E-001	3.65805E-002	0.00000E+000	8.55000E-001	-2.68155E-003	11	...........	-327.56
	900	45.05	8.99668E-001	3.78129E-002	0.00000E+000	9.00000E-001	-2.67789E-003	11	...........	-327.56
	945	47.3	9.44561E-001	4.10926E-002	0.00000E+000	9.45000E-001	-2.67322E-003	11	...........	-327.56
	990	49.55	9.89467E-001	4.80068E-002	0.00000E+000	9.90000E-001	-2.68789E-003	11	...........	-327.56
	1035	51.8	1.03446E+000	5.45023E-002	0.00000E+000	1.03500E+000	-2.67855E-003	11	...........	-327.56
	1080	54.05	1.07936E+000	6.20018E-002	0.00000E+000	1.08000E+000	-2.67555E-003	11	...........	-327.56
	1125	56.3	1.12423E+000	7.04911E-002	0.00000E+000	1.12500E+000	-2.67389E-003	11	...........	-327.56
	1170	58.55	1.16909E+000	7.51944E-002	0.00000E+000	1.17000E+000	-2.67155E-003	11	...........	-327.56
	1215	60.8	1.21409E+000	8.19132E-002	0.00000E+000	1.21500E+000	-2.67289E-003	11	...........	-327.56
	1260	63.05	1.25896E+000	9.46377E-002	0.00000E+000	1.26000E+000	-2.67622E-003	11	...........	-327.56
	1305	65.3	1.30380E+000	1.21069E-001	0.00000E+000	1.30500E+000	-2.67122E-003	11	...........	-327.56
	1350	67.55	1.34857E+000	1.74541E-001	0.00000E+000	1.35000E+000	-2.67689E-003	11	...........	-327.56
	1395	69.8	1.39344E+000	2.52124E-001	0.00000E+000	1.39500E+000	-2.68122E-003	11	...........	-327.56
	1440	72.05	1.43862E+000	3.42693E-001	0.00000E+000	1.44000E+000	-2.66989E-003	12	...........	-327.56
	1485	74.3	1.48347E+000	4.40298E-001	0.00000E+000	1.48500E+000	-2.67189E-003	12	...........	-327.56
	1530	76.55	1.52834E+000	5.38810E-001	0.00000E+000	1.53000E+000	-2.67389E-003	12	...........	-327.56
	1575	78.8	1.57325E+000	6.39564E-001	0.00000E+000	1.57500E+000	-2.68922E-003	12	...........	-327.56
	1620	81.05	1.61814E+000	7.40607E-001	0.00000E+000	1.62000E+000	-2.68422E-003	12	...........	-327.56
	1665	83.3	1.66295E+000	8.44644E-001	0.00000E+000	1.66500E+000	-2.67722E-003	12	...........	-327.56
	1710	85.55	1.68789E+000	9.06771E-001	0.00000E+000	1.69000E+000	-2.67889E-003	12	...........	-327.56
	1755	87.8	1.64304E+000	8.13177E-001	0.00000E+000	1.64500E+000	-2.66622E-003	12	...........	-327.56
	1800	90.05	1.59818E+000	7.16212E-001	0.00000E+000	1.60000E+000	-2.67989E-003	12	...........	-327.56
	1845	92.3	1.55323E+000	6.23737E-001	0.00000E+000	1.55500E+000	-2.68689E-003	12	...........	-327.56
	1890	94.55	1.50836E+000	5.30813E-001	0.00000E+000	1.51000E+000	-2.68622E-003	12	...........	-327.56
	1935	96.8	1.46350E+000	4.42452E-001	0.00000E+000	1.46500E+000	-2.67622E-003	12	...........	-327.56
	1980	99.05	1.41863E+000	3.57067E-001	0.00000E+000	1.42000E+000	-2.67722E-003	12	...........	-327.56
	2025	101.3	1.37367E+000	2.77726E-001	0.00000E+000	1.37500E+000	-2.66622E-003	12	...........	-327.56
[...]
	9841	492.1	1.08412E+000	9.11121E-002	0.00000E+000	1.08500E+000	-2.67922E-003	11	...........	-327.56
	9859	493	1.10203E+000	9.83366E-002	0.00000E+000	1.10300E+000	-2.66622E-003	11	...........	-327.56
	9877	493.9	1.11996E+000	1.14669E-001	0.00000E+000	1.12100E+000	-2.66455E-003	11	...........	-327.56
	9895	494.8	1.13795E+000	1.14201E-001	0.00000E+000	1.13900E+000	-2.66722E-003	11	...........	-327.56
	9913	495.7	1.15589E+000	1.22440E-001	0.00000E+000	1.15700E+000	-2.66455E-003	11	...........	-327.56
	9931	496.6	1.17382E+000	1.31968E-001	0.00000E+000	1.17500E+000	-2.66689E-003	11	...........	-327.56
	9949	497.5	1.19173E+000	1.43820E-001	0.00000E+000	1.19300E+000	-2.66022E-003	11	...........	-327.56
	9967	498.4	1.20981E+000	1.43765E-001	0.00000E+000	1.21100E+000	-2.66689E-003	11	...........	-327.56
	9985	499.3	1.22774E+000	1.49773E-001	0.00000E+000	1.22900E+000	-2.66755E-003	11	...........	-327.56
	10003	500.2	1.24568E+000	1.62075E-001	0.00000E+000	1.24700E+000	-2.66455E-003	11	...........	-327.56
	10021	501.1	1.26372E+000	1.60379E-001	0.00000E+000	1.26500E+000	-2.66722E-003	11	...........	-327.56
	10039	502	1.28169E+000	1.66655E-001	0.00000E+000	1.28300E+000	-2.66922E-003	11	...........	-327.56
	10057	502.9	1.29962E+000	1.73178E-001	0.00000E+000	1.30100E+000	-2.66189E-003	11	...........	-327.56
	10075	503.8	1.31766E+000	1.81780E-001	0.00000E+000	1.31900E+000	-2.65789E-003	11	...........	-327.56
	10093	504.7	1.33552E+000	2.05981E-001	0.00000E+000	1.33700E+000	-2.67189E-003	11	...........	-327.56
	10111	505.6	1.35350E+000	2.05441E-001	0.00000E+000	1.35500E+000	-2.66755E-003	11	...........	-327.56
	10129	506.5	1.37144E+000	2.22326E-001	0.00000E+000	1.37300E+000	-2.66455E-003	11	...........	-327.56
	10147	507.4	1.38942E+000	2.43716E-001	0.00000E+000	1.39100E+000	-2.65622E-003	11	...........	-327.56
	10165	508.3	1.40766E+000	2.70414E-001	0.00000E+000	1.40900E+000	-2.66855E-003	12	...........	-327.56
	10183	509.2	1.42556E+000	3.01534E-001	0.00000E+000	1.42700E+000	-2.66855E-003	12	...........	-327.56
	10201	510.1	1.44358E+000	3.36895E-001	0.00000E+000	1.44500E+000	-2.66055E-003	12	...........	-327.56
	10219	511	1.46152E+000	3.70380E-001	0.00000E+000	1.46300E+000	-2.66789E-003	12	...........	-327.56
	10237	511.9	1.47944E+000	4.06633E-001	0.00000E+000	1.48100E+000	-2.66222E-003	12	...........	-327.56
	10255	512.8	1.49745E+000	4.46467E-001	0.00000E+000	1.49900E+000	-2.66289E-003	12	...........	-327.56
	10273	513.7	1.51541E+000	4.84713E-001	0.00000E+000	1.51700E+000	-2.66589E-003	12	...........	-327.56
	10291	514.6	1.53331E+000	5.24599E-001	0.00000E+000	1.53500E+000	-2.67889E-003	12	...........	-327.56
	10309	515.5	1.55120E+000	5.64792E-001	0.00000E+000	1.55300E+000	-2.66922E-003	12	...........	-327.56
	10327	516.4	1.56924E+000	6.03339E-001	0.00000E+000	1.57100E+000	-2.66255E-003	12	...........	-327.56
	10345	517.3	1.58712E+000	6.44274E-001	0.00000E+000	1.58900E+000	-2.67189E-003	12	...........	-327.56
	10363	518.2	1.60509E+000	6.84865E-001	0.00000E+000	1.60700E+000	-2.66322E-003	12	...........	-327.56
	10381	519.1	1.62308E+000	7.26391E-001	0.00000E+000	1.62500E+000	-2.65522E-003	12	...........	-327.56
	10399	520	1.64100E+000	7.69877E-001	0.00000E+000	1.64300E+000	-2.67222E-003	12	...........	-327.56
	10417	520.9	1.65898E+000	8.11165E-001	0.00000E+000	1.66100E+000	-2.67255E-003	12	...........	-327.56
	10435	521.8	1.67686E+000	8.56098E-001	0.00000E+000	1.67900E+000	-2.67222E-003	12	...........	-327.56
	10453	522.7	1.69488E+000	8.99809E-001	0.00000E+000	1.69700E+000	-2.67022E-003	12	...........	-327.56
	10456	522.85	1.69787E+000	9.08407E-001	0.00000E+000	1.70000E+000	-2.67122E-003	12	...........	-327.56