Folder: ectools/testing/data (part 5)

File: 240902_07_MCL13_cswWE_CV2_750C_CO2.DTA
EXPLAIN
TAG	CV
TITLE	LABEL	Cyclic Voltammetry	Test Identifier
DATE	LABEL	9/2/2024	Date
TIME	LABEL	22:32:45	Time
NOTES	NOTES	5	Notes...
	cswWE - carbon steel wire
cspWE - carbon steel plate 2x2 tapered

Carbon steel plate counter electrode
Carbon steel wire reference electrode
PSTAT	PSTAT	REF3000-48128	Potentiostat
VINIT	POTEN	0.00000E+000	T	Initial E (V)
VLIMIT1	POTEN	1.70000E+000	F	Scan Limit 1 (V)
VLIMIT2	POTEN	-1.20000E+000	F	Scan Limit 2 (V)
VFINAL	POTEN	1.70000E+000	F	Final E (V)
SCANRATE	QUANT	2.00000E+000	Scan Rate (mV/s)
STEPSIZE	QUANT	1.00000E+000	Step Size (mV)
CYCLES	IQUANT	2	Cycles (#)
IMODE	SELECTOR	0	I/E Range Mode
IRANGE	QUANT	3.00000E-001	Max Current (mA)
AREA	QUANT	1.00000E+000	Sample Area (cm^2)
EQDELAY	QUANT	0.00000E+000	Equil. Time (s)
IRCOMP	SELECTOR	0	IRComp
PFCOR	QUANT	5.00000E+001	PF Corr. (ohm)
SAMPLINGMODE	SELECTOR	1	Sampling Mode
EOC	QUANT	0.1259027	Open Circuit (V)
ELECTRODETYPE	SELECTOR	0	Electrode Type
STRIPPING	TOGGLE	F	Used for Stripping
SEQUENCER	TOGGLE	TRUE	Run as Sequence
PSTATMODEL	IQUANT	5	Pstat Model
PSTATSECTION	LABEL	REF3000-48128	Pstat Section
PSTATSERIALNO	LABEL	48128	Pstat Serial Number
CTRLMODE	IQUANT	1	Control Mode
ELECTROMETER	IQUANT	0	RE=0 or CS=1
IESTAB	IQUANT	2	I/E Stability
CASPEED	IQUANT	4	Control Amp Speed
CONVENTION	IQUANT	1	Current Convention
ICHRANGE	IQUANT	2	Ich Range
ICHRANGEMODE	TOGGLE	F	Ich Auto Range
ICHOFFSETENABLE	TOGGLE	F	Ich Offset Enable
ICHOFFSET	QUANT	0	Ich Offset (V)
ICHFILTER	IQUANT	3	Ich Filter
VCHRANGE	IQUANT	2	Vch Range
VCHRANGEMODE	TOGGLE	F	Vch Auto Range
VCHOFFSETENABLE	TOGGLE	F	Vch Offset Enable
VCHOFFSET	QUANT	0	Vch Offset (V)
VCHFILTER	IQUANT	3	Vch Filter
ACHRANGE	IQUANT	2	Ach Range
ACHOFFSETENABLE	TOGGLE	F	Ach Offset Enable
ACHOFFSET	QUANT	0	Ach Offset (V)
ACHFILTER	IQUANT	1	Ach Filter
IERANGELOWERLIMIT	IQUANT	2	I/E Range Lower Limit
IERANGEMODE	TOGGLE	T	I/E AutoRange
IERANGE	IQUANT	9	I/E Range
POSFEEDENABLE	TOGGLE	F	Positive Feedback IR Comp
POSFEEDRESISTANCE	QUANT	0	Positive Feedback Resistance (ohm)
ACHSELECT	IQUANT	4	Ach Select
SENSECABLEID	IQUANT	14	Sense Cable ID
PWRCABLEID	IQUANT	7	Power Cable ID
DCCALDATE	LABEL	8/16/2024	DC Calibration Date
ACCALDATE	LABEL	8/16/2024	AC Calibration Date
THERMOSELECT	IQUANT	1	Thermo Select
FRAMEWORKVERSION	LABEL	7.10.3	Framework Version
INSTRUMENTVERSION	LABEL	4.91	Instrument Version
COMMVERSION	LABEL	5.10	Communications Version
CPUPLDVERSION	LABEL	6.00	CPU PLD Version
CTRLPLDVERSION	LABEL	3.21	CTRL PLD Version
PSTATPLDVERSION	LABEL	0.00	PSTAT PLD Version
COMPLIANCEVOLTAGE	IQUANT	0	Compliance Voltage
CURVE1	TABLE
	Pt	T	Vf	Im	Vu	Sig	Ach	IERange	Over	Temp
	#	s	V vs. Ref.	A	V	V	V	#	bits	deg C
	0	0.5	1.25566E-001	5.92601E-004	0.00000E+000	1.25900E-001	-9.69548E-005	9	...........	-327.56
	46	23.5	1.71466E-001	1.05734E-002	0.00000E+000	1.71900E-001	-1.06221E-004	10	...........	-327.56
	92	46.5	2.17374E-001	1.86263E-002	0.00000E+000	2.17900E-001	-1.04188E-004	10	...........	-327.56
	138	69.5	2.63528E-001	2.76656E-002	0.00000E+000	2.63900E-001	-1.05655E-004	11	...........	-327.56
	184	92.5	3.09428E-001	3.82345E-002	0.00000E+000	3.09900E-001	-1.03288E-004	11	...........	-327.56
	230	115.5	3.55368E-001	4.72186E-002	0.00000E+000	3.55900E-001	-1.06921E-004	11	...........	-327.56
	276	138.5	4.01091E-001	2.17897E-002	0.00000E+000	4.01900E-001	-1.02221E-004	10	...........	-327.56
	322	161.5	4.47212E-001	1.64929E-002	0.00000E+000	4.47900E-001	-1.02355E-004	10	...........	-327.56
	368	184.5	4.93155E-001	1.82500E-002	0.00000E+000	4.93900E-001	-1.02821E-004	10	...........	-327.56
	414	207.5	5.39095E-001	1.91180E-002	0.00000E+000	5.39900E-001	-1.05655E-004	10	...........	-327.56
	460	230.5	5.85006E-001	1.89817E-002	0.00000E+000	5.85900E-001	-1.02188E-004	10	...........	-327.56
	506	253.5	6.30951E-001	1.83696E-002	0.00000E+000	6.31900E-001	-1.03088E-004	10	...........	-327.56
	552	276.5	6.77003E-001	1.76852E-002	0.00000E+000	6.77900E-001	-1.03988E-004	10	...........	-327.56
	598	299.5	7.22934E-001	1.69722E-002	0.00000E+000	7.23900E-001	-1.00455E-004	10	...........	-327.56
	644	322.5	7.68864E-001	1.65837E-002	0.00000E+000	7.69900E-001	-1.01921E-004	10	...........	-327.56
	690	345.5	8.14825E-001	1.63123E-002	0.00000E+000	8.15900E-001	-1.02055E-004	10	...........	-327.56
	736	368.5	8.60744E-001	1.63013E-002	0.00000E+000	8.61900E-001	-1.05288E-004	10	...........	-327.56
	782	391.5	9.06756E-001	1.70220E-002	0.00000E+000	9.07900E-001	-1.02755E-004	10	...........	-327.56
	828	414.5	9.52664E-001	2.01594E-002	0.00000E+000	9.53900E-001	-9.94548E-005	10	...........	-327.56
	874	437.5	9.98803E-001	2.83330E-002	0.00000E+000	9.99900E-001	-9.84881E-005	11	...........	-327.56
	920	460.5	1.04474E+000	4.01531E-002	0.00000E+000	1.04590E+000	-1.06155E-004	11	...........	-327.56
	966	483.5	1.09063E+000	4.85760E-002	0.00000E+000	1.09190E+000	-1.04188E-004	11	...........	-327.56
	1012	506.5	1.13668E+000	3.41409E-002	0.00000E+000	1.13790E+000	-1.00488E-004	11	...........	-327.56
	1058	529.5	1.18264E+000	3.16733E-002	0.00000E+000	1.18390E+000	-1.08421E-004	11	...........	-327.56
	1104	552.5	1.22856E+000	5.66939E-002	0.00000E+000	1.22990E+000	-1.05455E-004	11	...........	-327.56
	1150	575.5	1.27441E+000	1.03052E-001	0.00000E+000	1.27590E+000	-1.06088E-004	11	...........	-327.56
	1196	598.5	1.32022E+000	1.82498E-001	0.00000E+000	1.32190E+000	-1.04088E-004	11	...........	-327.56
	1242	621.5	1.36637E+000	2.90744E-001	0.00000E+000	1.36790E+000	-1.01921E-004	12	...........	-327.56
	1288	644.5	1.41225E+000	4.12184E-001	0.00000E+000	1.41390E+000	-1.04988E-004	12	...........	-327.56
	1334	667.5	1.45810E+000	5.21234E-001	0.00000E+000	1.45990E+000	-1.04921E-004	12	...........	-327.56
	1380	690.5	1.50396E+000	6.52703E-001	0.00000E+000	1.50590E+000	-1.02021E-004	12	...........	-327.56
	1426	713.5	1.54978E+000	7.87062E-001	0.00000E+000	1.55190E+000	-1.07521E-004	12	...........	-327.56
	1472	736.5	1.59576E+000	9.39670E-001	0.00000E+000	1.59790E+000	-1.04155E-004	12	...........	-327.56
	1518	759.5	1.64160E+000	1.07549E+000	0.00000E+000	1.64390E+000	-1.06221E-004	12	...........	-327.56
	1564	782.5	1.68750E+000	1.20446E+000	0.00000E+000	1.68990E+000	-1.01821E-004	12	...........	-327.56
	1610	805.5	1.66151E+000	1.16259E+000	0.00000E+000	1.66390E+000	-1.00888E-004	12	...........	-327.56
	1656	828.5	1.61564E+000	1.07435E+000	0.00000E+000	1.61790E+000	-1.03521E-004	12	...........	-327.56
	1702	851.5	1.56978E+000	9.50589E-001	0.00000E+000	1.57190E+000	-1.05155E-004	12	...........	-327.56
	1748	874.5	1.52381E+000	8.36327E-001	0.00000E+000	1.52590E+000	-1.04355E-004	12	...........	-327.56
	1794	897.5	1.47795E+000	7.13800E-001	0.00000E+000	1.47990E+000	-1.06255E-004	12	...........	-327.56
	1840	920.5	1.43211E+000	5.80914E-001	0.00000E+000	1.43390E+000	-1.04255E-004	12	...........	-327.56
	1886	943.5	1.38624E+000	4.66154E-001	0.00000E+000	1.38790E+000	-1.02788E-004	12	...........	-327.56
	1932	966.5	1.34034E+000	3.56603E-001	0.00000E+000	1.34190E+000	-1.01288E-004	12	...........	-327.56
	1978	989.5	1.29437E+000	2.53413E-001	0.00000E+000	1.29590E+000	-1.02055E-004	12	...........	-327.56
	2024	1012.5	1.24834E+000	1.62959E-001	0.00000E+000	1.24990E+000	-1.01055E-004	11	...........	-327.56
	2070	1035.5	1.20247E+000	1.01125E-001	0.00000E+000	1.20390E+000	-1.04288E-004	11	...........	-327.56
[...]
	12135	6068	6.60137E-001	9.20867E-002	0.00000E+000	6.61000E-001	-1.10921E-004	11	...........	-327.56
	12165	6083	6.90130E-001	8.64941E-002	0.00000E+000	6.91000E-001	-1.07155E-004	11	...........	-327.56
	12195	6098	7.20119E-001	7.84011E-002	0.00000E+000	7.21000E-001	-1.06421E-004	11	...........	-327.56
	12225	6113	7.50126E-001	7.24057E-002	0.00000E+000	7.51000E-001	-1.03921E-004	11	...........	-327.56
	12255	6128	7.80093E-001	6.42294E-002	0.00000E+000	7.81000E-001	-1.06721E-004	11	...........	-327.56
	12285	6143	8.10016E-001	5.91468E-002	0.00000E+000	8.11000E-001	-1.09055E-004	11	...........	-327.56
	12315	6158	8.40002E-001	5.45436E-002	0.00000E+000	8.41000E-001	-1.08421E-004	11	...........	-327.56
	12345	6173	8.69980E-001	5.04650E-002	0.00000E+000	8.71000E-001	-1.04288E-004	11	...........	-327.56
	12375	6188	9.00004E-001	4.85929E-002	0.00000E+000	9.01000E-001	-1.06355E-004	11	...........	-327.56
	12405	6203	9.29967E-001	4.69232E-002	0.00000E+000	9.31000E-001	-1.08521E-004	11	...........	-327.56
	12435	6218	9.59942E-001	4.50938E-002	0.00000E+000	9.61000E-001	-1.04355E-004	11	...........	-327.56
	12465	6233	9.89850E-001	4.46880E-002	0.00000E+000	9.91000E-001	-1.07855E-004	11	...........	-327.56
	12495	6248	1.01985E+000	4.73357E-002	0.00000E+000	1.02100E+000	-1.05655E-004	11	...........	-327.56
	12525	6263	1.04982E+000	5.10844E-002	0.00000E+000	1.05100E+000	-1.05655E-004	11	...........	-327.56
	12555	6278	1.07984E+000	5.66721E-002	0.00000E+000	1.08100E+000	-1.06488E-004	11	...........	-327.56
	12585	6293	1.10980E+000	6.16325E-002	0.00000E+000	1.11100E+000	-1.08255E-004	11	...........	-327.56
	12615	6308	1.13963E+000	6.39114E-002	0.00000E+000	1.14100E+000	-1.04421E-004	11	...........	-327.56
	12645	6323	1.16964E+000	5.82804E-002	0.00000E+000	1.17100E+000	-1.08588E-004	11	...........	-327.56
	12675	6338	1.19965E+000	5.06281E-002	0.00000E+000	1.20100E+000	-1.04588E-004	11	...........	-327.56
	12705	6353	1.22965E+000	5.47412E-002	0.00000E+000	1.23100E+000	-1.08521E-004	11	...........	-327.56
	12735	6368	1.25964E+000	7.55720E-002	0.00000E+000	1.26100E+000	-1.09455E-004	11	...........	-327.56
	12765	6383	1.28956E+000	1.09816E-001	0.00000E+000	1.29100E+000	-1.07555E-004	11	...........	-327.56
	12795	6398	1.31937E+000	1.55892E-001	0.00000E+000	1.32100E+000	-1.05155E-004	11	...........	-327.56
	12825	6413	1.34925E+000	2.09393E-001	0.00000E+000	1.35100E+000	-1.04055E-004	11	...........	-327.56
	12855	6428	1.37915E+000	2.68048E-001	0.00000E+000	1.38100E+000	-1.03321E-004	11	...........	-327.56
	12885	6443	1.40946E+000	3.29511E-001	0.00000E+000	1.41100E+000	-1.07388E-004	12	...........	-327.56
	12915	6458	1.43936E+000	3.91940E-001	0.00000E+000	1.44100E+000	-1.11655E-004	12	...........	-327.56
	12945	6473	1.46930E+000	4.53126E-001	0.00000E+000	1.47100E+000	-1.03988E-004	12	...........	-327.56
	12975	6488	1.49915E+000	5.15792E-001	0.00000E+000	1.50100E+000	-1.05455E-004	12	...........	-327.56
	13005	6503	1.52911E+000	5.85900E-001	0.00000E+000	1.53100E+000	-1.05755E-004	12	...........	-327.56
	13035	6518	1.55902E+000	6.65668E-001	0.00000E+000	1.56100E+000	-1.06821E-004	12	...........	-327.56
	13065	6533	1.58898E+000	7.50870E-001	0.00000E+000	1.59100E+000	-1.04055E-004	12	...........	-327.56
	13095	6548	1.61892E+000	8.37932E-001	0.00000E+000	1.62100E+000	-1.07255E-004	12	...........	-327.56
	13125	6563	1.64880E+000	9.43970E-001	0.00000E+000	1.65100E+000	-1.08088E-004	12	...........	-327.56
	13155	6578	1.67866E+000	1.03482E+000	0.00000E+000	1.68100E+000	-1.06655E-004	12	...........	-327.56
	13174	6587.5	1.69769E+000	1.09766E+000	0.00000E+000	1.70000E+000	-1.07821E-004	12	...........	-327.56

File: 240902_08_MCL13_cswWE_CV2_750C_CO2.DTA
EXPLAIN
TAG	CV
TITLE	LABEL	Cyclic Voltammetry	Test Identifier
DATE	LABEL	9/3/2024	Date
TIME	LABEL	0:23:34	Time
NOTES	NOTES	5	Notes...
	cswWE - carbon steel wire
cspWE - carbon steel plate 2x2 tapered

Carbon steel plate counter electrode
Carbon steel wire reference electrode
PSTAT	PSTAT	REF3000-48128	Potentiostat
VINIT	POTEN	0.00000E+000	T	Initial E (V)
VLIMIT1	POTEN	1.70000E+000	F	Scan Limit 1 (V)
VLIMIT2	POTEN	-1.10000E+000	F	Scan Limit 2 (V)
VFINAL	POTEN	1.70000E+000	F	Final E (V)
SCANRATE	QUANT	2.00000E+000	Scan Rate (mV/s)
STEPSIZE	QUANT	1.00000E+000	Step Size (mV)
CYCLES	IQUANT	2	Cycles (#)
IMODE	SELECTOR	0	I/E Range Mode
IRANGE	QUANT	3.00000E-001	Max Current (mA)
AREA	QUANT	1.00000E+000	Sample Area (cm^2)
EQDELAY	QUANT	0.00000E+000	Equil. Time (s)
IRCOMP	SELECTOR	0	IRComp
PFCOR	QUANT	5.00000E+001	PF Corr. (ohm)
SAMPLINGMODE	SELECTOR	1	Sampling Mode
EOC	QUANT	0.1612323	Open Circuit (V)
ELECTRODETYPE	SELECTOR	0	Electrode Type
STRIPPING	TOGGLE	F	Used for Stripping
SEQUENCER	TOGGLE	TRUE	Run as Sequence
PSTATMODEL	IQUANT	5	Pstat Model
PSTATSECTION	LABEL	REF3000-48128	Pstat Section
PSTATSERIALNO	LABEL	48128	Pstat Serial Number
CTRLMODE	IQUANT	1	Control Mode
ELECTROMETER	IQUANT	0	RE=0 or CS=1
IESTAB	IQUANT	2	I/E Stability
CASPEED	IQUANT	4	Control Amp Speed
CONVENTION	IQUANT	1	Current Convention
ICHRANGE	IQUANT	2	Ich Range
ICHRANGEMODE	TOGGLE	F	Ich Auto Range
ICHOFFSETENABLE	TOGGLE	F	Ich Offset Enable
ICHOFFSET	QUANT	0	Ich Offset (V)
ICHFILTER	IQUANT	3	Ich Filter
VCHRANGE	IQUANT	2	Vch Range
VCHRANGEMODE	TOGGLE	F	Vch Auto Range
VCHOFFSETENABLE	TOGGLE	F	Vch Offset Enable
VCHOFFSET	QUANT	0	Vch Offset (V)
VCHFILTER	IQUANT	3	Vch Filter
ACHRANGE	IQUANT	2	Ach Range
ACHOFFSETENABLE	TOGGLE	F	Ach Offset Enable
ACHOFFSET	QUANT	0	Ach Offset (V)
ACHFILTER	IQUANT	1	Ach Filter
IERANGELOWERLIMIT	IQUANT	2	I/E Range Lower Limit
IERANGEMODE	TOGGLE	T	I/E AutoRange
IERANGE	IQUANT	9	I/E Range
POSFEEDENABLE	TOGGLE	F	Positive Feedback IR Comp
POSFEEDRESISTANCE	QUANT	0	Positive Feedback Resistance (ohm)
ACHSELECT	IQUANT	4	Ach Select
SENSECABLEID	IQUANT	14	Sense Cable ID
PWRCABLEID	IQUANT	7	Power Cable ID
DCCALDATE	LABEL	8/16/2024	DC Calibration Date
ACCALDATE	LABEL	8/16/2024	AC Calibration Date
THERMOSELECT	IQUANT	1	Thermo Select
FRAMEWORKVERSION	LABEL	7.10.3	Framework Version
INSTRUMENTVERSION	LABEL	4.91	Instrument Version
COMMVERSION	LABEL	5.10	Communications Version
CPUPLDVERSION	LABEL	6.00	CPU PLD Version
CTRLPLDVERSION	LABEL	3.21	CTRL PLD Version
PSTATPLDVERSION	LABEL	0.00	PSTAT PLD Version
COMPLIANCEVOLTAGE	IQUANT	0	Compliance Voltage
CURVE1	TABLE
	Pt	T	Vf	Im	Vu	Sig	Ach	IERange	Over	Temp
	#	s	V vs. Ref.	A	V	V	V	#	bits	deg C
	0	0.5	1.60894E-001	9.61789E-004	0.00000E+000	1.61250E-001	-1.01288E-004	9	...........	-327.56
	44	22.5	2.04769E-001	1.28645E-002	0.00000E+000	2.05250E-001	-1.08355E-004	10	...........	-327.56
	88	44.5	2.48614E-001	2.15995E-002	0.00000E+000	2.49250E-001	-1.03221E-004	10	...........	-327.56
	132	66.5	2.92858E-001	3.05232E-002	0.00000E+000	2.93250E-001	-1.08355E-004	11	...........	-327.56
	176	88.5	3.36758E-001	4.01696E-002	0.00000E+000	3.37250E-001	-1.05855E-004	11	...........	-327.56
	220	110.5	3.80736E-001	2.89957E-002	0.00000E+000	3.81250E-001	-1.09955E-004	11	...........	-327.56
	264	132.5	4.24446E-001	1.96305E-002	0.00000E+000	4.25250E-001	-1.09188E-004	10	...........	-327.56
	308	154.5	4.68532E-001	1.80164E-002	0.00000E+000	4.69250E-001	-1.03455E-004	10	...........	-327.56
	352	176.5	5.12401E-001	1.92315E-002	0.00000E+000	5.13250E-001	-1.05955E-004	10	...........	-327.56
	396	198.5	5.56355E-001	1.98042E-002	0.00000E+000	5.57250E-001	-1.03221E-004	10	...........	-327.56
	440	220.5	6.00384E-001	1.98352E-002	0.00000E+000	6.01250E-001	-1.06021E-004	10	...........	-327.56
	484	242.5	6.44325E-001	1.96805E-002	0.00000E+000	6.45250E-001	-1.04221E-004	10	...........	-327.56
	528	264.5	6.88258E-001	1.94529E-002	0.00000E+000	6.89250E-001	-1.03955E-004	10	...........	-327.56
	572	286.5	7.32175E-001	1.85165E-002	0.00000E+000	7.33250E-001	-1.06488E-004	10	...........	-327.56
	616	308.5	7.76248E-001	1.77237E-002	0.00000E+000	7.77250E-001	-1.01288E-004	10	...........	-327.56
	660	330.5	8.20164E-001	1.67402E-002	0.00000E+000	8.21250E-001	-1.07121E-004	10	...........	-327.56
	704	352.5	8.64122E-001	1.63155E-002	0.00000E+000	8.65250E-001	-1.06155E-004	10	...........	-327.56
	748	374.5	9.08115E-001	1.67208E-002	0.00000E+000	9.09250E-001	-1.07321E-004	10	...........	-327.56
	792	396.5	9.52025E-001	1.82485E-002	0.00000E+000	9.53250E-001	-1.02388E-004	10	...........	-327.56
	836	418.5	9.95864E-001	2.52849E-002	0.00000E+000	9.97250E-001	-1.03321E-004	10	...........	-327.56
	880	440.5	1.04006E+000	3.45992E-002	0.00000E+000	1.04125E+000	-1.05821E-004	11	...........	-327.56
	924	462.5	1.08409E+000	4.31818E-002	0.00000E+000	1.08525E+000	-1.07021E-004	11	...........	-327.56
	968	484.5	1.12798E+000	4.22767E-002	0.00000E+000	1.12925E+000	-1.09188E-004	11	...........	-327.56
	1012	506.5	1.17195E+000	3.32032E-002	0.00000E+000	1.17325E+000	-1.06788E-004	11	...........	-327.56
	1056	528.5	1.21595E+000	4.58516E-002	0.00000E+000	1.21725E+000	-1.06021E-004	11	...........	-327.56
	1100	550.5	1.25989E+000	7.74227E-002	0.00000E+000	1.26125E+000	-1.03121E-004	11	...........	-327.56
	1144	572.5	1.30374E+000	1.33508E-001	0.00000E+000	1.30525E+000	-1.07355E-004	11	...........	-327.56
	1188	594.5	1.34749E+000	2.15774E-001	0.00000E+000	1.34925E+000	-1.03655E-004	11	...........	-327.56
	1232	616.5	1.39169E+000	3.14927E-001	0.00000E+000	1.39325E+000	-1.05288E-004	12	...........	-327.56
	1276	638.5	1.43556E+000	4.21876E-001	0.00000E+000	1.43725E+000	-1.07588E-004	12	...........	-327.56
	1320	660.5	1.47944E+000	5.17799E-001	0.00000E+000	1.48125E+000	-1.09588E-004	12	...........	-327.56
	1364	682.5	1.52336E+000	6.29262E-001	0.00000E+000	1.52525E+000	-1.05921E-004	12	...........	-327.56
	1408	704.5	1.56724E+000	7.59021E-001	0.00000E+000	1.56925E+000	-1.08188E-004	12	...........	-327.56
	1452	726.5	1.61113E+000	8.81619E-001	0.00000E+000	1.61325E+000	-1.04888E-004	12	...........	-327.56
	1496	748.5	1.65495E+000	1.01890E+000	0.00000E+000	1.65725E+000	-1.07155E-004	12	...........	-327.56
	1540	770.5	1.69691E+000	1.14907E+000	0.00000E+000	1.69925E+000	-1.07955E-004	12	...........	-327.56
	1584	792.5	1.65289E+000	1.06271E+000	0.00000E+000	1.65525E+000	-1.08155E-004	12	...........	-327.56
	1628	814.5	1.60903E+000	9.79233E-001	0.00000E+000	1.61125E+000	-1.03421E-004	12	...........	-327.56
	1672	836.5	1.56517E+000	8.68246E-001	0.00000E+000	1.56725E+000	-1.07355E-004	12	...........	-327.56
	1716	858.5	1.52130E+000	7.66227E-001	0.00000E+000	1.52325E+000	-1.03621E-004	12	...........	-327.56
	1760	880.5	1.47737E+000	6.46352E-001	0.00000E+000	1.47925E+000	-1.04721E-004	12	...........	-327.56
	1804	902.5	1.43351E+000	5.44469E-001	0.00000E+000	1.43525E+000	-1.04921E-004	12	...........	-327.56
	1848	924.5	1.38961E+000	4.50262E-001	0.00000E+000	1.39125E+000	-1.08688E-004	12	...........	-327.56
	1892	946.5	1.34558E+000	3.58576E-001	0.00000E+000	1.34725E+000	-1.10455E-004	12	...........	-327.56
	1936	968.5	1.30180E+000	2.51005E-001	0.00000E+000	1.30325E+000	-1.06588E-004	12	...........	-327.56
	1980	990.5	1.25774E+000	1.66415E-001	0.00000E+000	1.25925E+000	-1.05588E-004	11	...........	-327.56
[...]
	11767	5884	7.27167E-001	5.21486E-002	0.00000E+000	7.28000E-001	-1.08421E-004	11	...........	-327.56
	11796	5898.5	7.56042E-001	5.12379E-002	0.00000E+000	7.57000E-001	-1.13588E-004	11	...........	-327.56
	11825	5913	7.85066E-001	4.96408E-002	0.00000E+000	7.86000E-001	-1.10088E-004	11	...........	-327.56
	11854	5927.5	8.14083E-001	4.87168E-002	0.00000E+000	8.15000E-001	-1.11021E-004	11	...........	-327.56
	11883	5942	8.43060E-001	4.73982E-002	0.00000E+000	8.44000E-001	-1.08921E-004	11	...........	-327.56
	11912	5956.5	8.72030E-001	4.67714E-002	0.00000E+000	8.73000E-001	-1.12588E-004	11	...........	-327.56
	11941	5971	9.01041E-001	4.51426E-002	0.00000E+000	9.02000E-001	-1.09121E-004	11	...........	-327.56
	11970	5985.5	9.29974E-001	4.36537E-002	0.00000E+000	9.31000E-001	-1.10788E-004	11	...........	-327.56
	11999	6000	9.58969E-001	4.16799E-002	0.00000E+000	9.60000E-001	-1.06721E-004	11	...........	-327.56
	12028	6014.5	9.87854E-001	4.69031E-002	0.00000E+000	9.89000E-001	-1.10988E-004	11	...........	-327.56
	12057	6029	1.01686E+000	4.12513E-002	0.00000E+000	1.01800E+000	-1.11721E-004	11	...........	-327.56
	12086	6043.5	1.04584E+000	4.58202E-002	0.00000E+000	1.04700E+000	-1.11955E-004	11	...........	-327.56
	12115	6058	1.07480E+000	4.88109E-002	0.00000E+000	1.07600E+000	-1.08888E-004	11	...........	-327.56
	12144	6072.5	1.10385E+000	5.35146E-002	0.00000E+000	1.10500E+000	-1.08855E-004	11	...........	-327.56
	12173	6087	1.13275E+000	5.70521E-002	0.00000E+000	1.13400E+000	-1.08155E-004	11	...........	-327.56
	12202	6101.5	1.16176E+000	5.50936E-002	0.00000E+000	1.16300E+000	-1.08421E-004	11	...........	-327.56
	12231	6116	1.19064E+000	4.93401E-002	0.00000E+000	1.19200E+000	-1.09721E-004	11	...........	-327.56
	12260	6130.5	1.21963E+000	4.69232E-002	0.00000E+000	1.22100E+000	-1.05988E-004	11	...........	-327.56
	12289	6145	1.24862E+000	5.95322E-002	0.00000E+000	1.25000E+000	-1.08121E-004	11	...........	-327.56
	12318	6159.5	1.27757E+000	8.89976E-002	0.00000E+000	1.27900E+000	-1.08455E-004	11	...........	-327.56
	12347	6174	1.30653E+000	1.23154E-001	0.00000E+000	1.30800E+000	-1.09455E-004	11	...........	-327.56
	12376	6188.5	1.33542E+000	1.67059E-001	0.00000E+000	1.33700E+000	-1.06788E-004	11	...........	-327.56
	12405	6203	1.36430E+000	2.17826E-001	0.00000E+000	1.36600E+000	-1.07055E-004	11	...........	-327.56
	12434	6217.5	1.39349E+000	2.76697E-001	0.00000E+000	1.39500E+000	-1.10655E-004	12	...........	-327.56
	12463	6232	1.42235E+000	3.23444E-001	0.00000E+000	1.42400E+000	-1.11421E-004	12	...........	-327.56
	12492	6246.5	1.45131E+000	3.86988E-001	0.00000E+000	1.45300E+000	-1.13488E-004	12	...........	-327.56
	12521	6261	1.48027E+000	4.39892E-001	0.00000E+000	1.48200E+000	-1.08288E-004	12	...........	-327.56
	12550	6275.5	1.50919E+000	5.11960E-001	0.00000E+000	1.51100E+000	-1.09588E-004	12	...........	-327.56
	12579	6290	1.53814E+000	5.90131E-001	0.00000E+000	1.54000E+000	-1.09721E-004	12	...........	-327.56
	12608	6304.5	1.56707E+000	6.67764E-001	0.00000E+000	1.56900E+000	-1.06588E-004	12	...........	-327.56
	12637	6319	1.59599E+000	7.53671E-001	0.00000E+000	1.59800E+000	-1.09355E-004	12	...........	-327.56
	12666	6333.5	1.62490E+000	8.30927E-001	0.00000E+000	1.62700E+000	-1.10321E-004	12	...........	-327.56
	12695	6348	1.65376E+000	9.18205E-001	0.00000E+000	1.65600E+000	-1.12421E-004	12	...........	-327.56
	12724	6362.5	1.68272E+000	9.99607E-001	0.00000E+000	1.68500E+000	-1.11188E-004	12	...........	-327.56
	12739	6370	1.69773E+000	1.04864E+000	0.00000E+000	1.70000E+000	-1.09988E-004	12	...........	-327.56