Folder: ectools/testing/data (part 9)

File: 240902_15_MCL13_cswWE_CV2_750C_CO2_post.DTA
EXPLAIN
TAG	CV
TITLE	LABEL	Cyclic Voltammetry	Test Identifier
DATE	LABEL	9/3/2024	Date
TIME	LABEL	14:43:30	Time
NOTES	NOTES	5	Notes...
	cswWE - carbon steel wire
cspWE - carbon steel plate 2x2 tapered

Carbon steel plate counter electrode
Carbon steel wire reference electrode
PSTAT	PSTAT	REF3000-48128	Potentiostat
VINIT	POTEN	0.00000E+000	T	Initial E (V)
VLIMIT1	POTEN	1.70000E+000	F	Scan Limit 1 (V)
VLIMIT2	POTEN	-1.00000E+000	F	Scan Limit 2 (V)
VFINAL	POTEN	1.70000E+000	F	Final E (V)
SCANRATE	QUANT	2.00000E+000	Scan Rate (mV/s)
STEPSIZE	QUANT	1.00000E+000	Step Size (mV)
CYCLES	IQUANT	2	Cycles (#)
IMODE	SELECTOR	0	I/E Range Mode
IRANGE	QUANT	3.00000E-001	Max Current (mA)
AREA	QUANT	1.00000E+000	Sample Area (cm^2)
EQDELAY	QUANT	0.00000E+000	Equil. Time (s)
IRCOMP	SELECTOR	0	IRComp
PFCOR	QUANT	5.00000E+001	PF Corr. (ohm)
SAMPLINGMODE	SELECTOR	1	Sampling Mode
EOC	QUANT	0.2475526	Open Circuit (V)
ELECTRODETYPE	SELECTOR	0	Electrode Type
STRIPPING	TOGGLE	F	Used for Stripping
SEQUENCER	TOGGLE	TRUE	Run as Sequence
PSTATMODEL	IQUANT	5	Pstat Model
PSTATSECTION	LABEL	REF3000-48128	Pstat Section
PSTATSERIALNO	LABEL	48128	Pstat Serial Number
CTRLMODE	IQUANT	1	Control Mode
ELECTROMETER	IQUANT	0	RE=0 or CS=1
IESTAB	IQUANT	2	I/E Stability
CASPEED	IQUANT	4	Control Amp Speed
CONVENTION	IQUANT	1	Current Convention
ICHRANGE	IQUANT	2	Ich Range
ICHRANGEMODE	TOGGLE	F	Ich Auto Range
ICHOFFSETENABLE	TOGGLE	F	Ich Offset Enable
ICHOFFSET	QUANT	0	Ich Offset (V)
ICHFILTER	IQUANT	3	Ich Filter
VCHRANGE	IQUANT	2	Vch Range
VCHRANGEMODE	TOGGLE	F	Vch Auto Range
VCHOFFSETENABLE	TOGGLE	F	Vch Offset Enable
VCHOFFSET	QUANT	0	Vch Offset (V)
VCHFILTER	IQUANT	3	Vch Filter
ACHRANGE	IQUANT	2	Ach Range
ACHOFFSETENABLE	TOGGLE	F	Ach Offset Enable
ACHOFFSET	QUANT	0	Ach Offset (V)
ACHFILTER	IQUANT	1	Ach Filter
IERANGELOWERLIMIT	IQUANT	2	I/E Range Lower Limit
IERANGEMODE	TOGGLE	T	I/E AutoRange
IERANGE	IQUANT	9	I/E Range
POSFEEDENABLE	TOGGLE	F	Positive Feedback IR Comp
POSFEEDRESISTANCE	QUANT	0	Positive Feedback Resistance (ohm)
ACHSELECT	IQUANT	4	Ach Select
SENSECABLEID	IQUANT	14	Sense Cable ID
PWRCABLEID	IQUANT	7	Power Cable ID
DCCALDATE	LABEL	8/16/2024	DC Calibration Date
ACCALDATE	LABEL	8/16/2024	AC Calibration Date
THERMOSELECT	IQUANT	1	Thermo Select
FRAMEWORKVERSION	LABEL	7.10.3	Framework Version
INSTRUMENTVERSION	LABEL	4.91	Instrument Version
COMMVERSION	LABEL	5.10	Communications Version
CPUPLDVERSION	LABEL	6.00	CPU PLD Version
CTRLPLDVERSION	LABEL	3.21	CTRL PLD Version
PSTATPLDVERSION	LABEL	0.00	PSTAT PLD Version
COMPLIANCEVOLTAGE	IQUANT	0	Compliance Voltage
CURVE1	TABLE
	Pt	T	Vf	Im	Vu	Sig	Ach	IERange	Over	Temp
	#	s	V vs. Ref.	A	V	V	V	#	bits	deg C
	0	0.5	2.47171E-001	2.10633E-005	0.00000E+000	2.47550E-001	-1.11655E-004	9	...........	-327.56
	42	21.5	2.88953E-001	2.03632E-003	0.00000E+000	2.89550E-001	-1.17921E-004	9	...........	-327.56
	84	42.5	3.31105E-001	3.65823E-003	0.00000E+000	3.31550E-001	-1.18588E-004	10	...........	-327.56
	126	63.5	3.72955E-001	5.85929E-003	0.00000E+000	3.73550E-001	-1.21088E-004	10	...........	-327.56
	168	84.5	4.15003E-001	7.83766E-003	0.00000E+000	4.15550E-001	-1.20355E-004	10	...........	-327.56
	210	105.5	4.56946E-001	7.31151E-003	0.00000E+000	4.57550E-001	-1.21788E-004	10	...........	-327.56
	252	126.5	4.98966E-001	6.91546E-003	0.00000E+000	4.99550E-001	-1.20521E-004	10	...........	-327.56
	294	147.5	5.40899E-001	6.26379E-003	0.00000E+000	5.41550E-001	-1.21988E-004	10	...........	-327.56
	336	168.5	5.82798E-001	6.23024E-003	0.00000E+000	5.83550E-001	-1.21921E-004	10	...........	-327.56
	378	189.5	6.24835E-001	6.21146E-003	0.00000E+000	6.25550E-001	-1.21921E-004	10	...........	-327.56
	420	210.5	6.66776E-001	6.29722E-003	0.00000E+000	6.67550E-001	-1.25855E-004	10	...........	-327.56
	462	231.5	7.08743E-001	6.33646E-003	0.00000E+000	7.09550E-001	-1.24455E-004	10	...........	-327.56
	504	252.5	7.50722E-001	6.49003E-003	0.00000E+000	7.51550E-001	-1.22988E-004	10	...........	-327.56
	546	273.5	7.92642E-001	6.68610E-003	0.00000E+000	7.93550E-001	-1.22688E-004	10	...........	-327.56
	588	294.5	8.34547E-001	6.78926E-003	0.00000E+000	8.35550E-001	-1.20588E-004	10	...........	-327.56
	630	315.5	8.76608E-001	6.73554E-003	0.00000E+000	8.77550E-001	-1.19521E-004	10	...........	-327.56
	672	336.5	9.18526E-001	6.70233E-003	0.00000E+000	9.19550E-001	-1.22688E-004	10	...........	-327.56
	714	357.5	9.60397E-001	6.71647E-003	0.00000E+000	9.61550E-001	-1.24588E-004	10	...........	-327.56
	756	378.5	1.00247E+000	6.82255E-003	0.00000E+000	1.00355E+000	-1.27321E-004	10	...........	-327.56
	798	399.5	1.04436E+000	7.46337E-003	0.00000E+000	1.04555E+000	-1.20088E-004	10	...........	-327.56
	840	420.5	1.08636E+000	9.22704E-003	0.00000E+000	1.08755E+000	-1.20588E-004	10	...........	-327.56
	882	441.5	1.12825E+000	1.23163E-002	0.00000E+000	1.12955E+000	-1.18088E-004	10	...........	-327.56
	924	462.5	1.17014E+000	1.61192E-002	0.00000E+000	1.17155E+000	-1.19455E-004	10	...........	-327.56
	966	483.5	1.21208E+000	2.20155E-002	0.00000E+000	1.21355E+000	-1.21721E-004	10	...........	-327.56
	1008	504.5	1.25429E+000	3.64316E-002	0.00000E+000	1.25555E+000	-1.21821E-004	11	...........	-327.56
	1050	525.5	1.29616E+000	6.05259E-002	0.00000E+000	1.29755E+000	-1.18388E-004	11	...........	-327.56
	1092	546.5	1.33808E+000	1.06795E-001	0.00000E+000	1.33955E+000	-1.17255E-004	11	...........	-327.56
	1134	567.5	1.37990E+000	1.67652E-001	0.00000E+000	1.38155E+000	-1.18988E-004	11	...........	-327.56
	1176	588.5	1.42169E+000	2.40381E-001	0.00000E+000	1.42355E+000	-1.21088E-004	11	...........	-327.56
	1218	609.5	1.46397E+000	3.05104E-001	0.00000E+000	1.46555E+000	-1.21655E-004	12	...........	-327.56
	1260	630.5	1.50584E+000	3.95198E-001	0.00000E+000	1.50755E+000	-1.19921E-004	12	...........	-327.56
	1302	651.5	1.54778E+000	4.76586E-001	0.00000E+000	1.54955E+000	-1.21788E-004	12	...........	-327.56
	1344	672.5	1.58966E+000	5.77735E-001	0.00000E+000	1.59155E+000	-1.22055E-004	12	...........	-327.56
	1386	693.5	1.63153E+000	6.71927E-001	0.00000E+000	1.63355E+000	-1.21421E-004	12	...........	-327.56
	1428	714.5	1.67350E+000	7.80258E-001	0.00000E+000	1.67555E+000	-1.20921E-004	12	...........	-327.56
	1470	735.5	1.67939E+000	8.07097E-001	0.00000E+000	1.68155E+000	-1.20821E-004	12	...........	-327.56
	1512	756.5	1.63749E+000	7.53067E-001	0.00000E+000	1.63955E+000	-1.18655E-004	12	...........	-327.56
	1554	777.5	1.59561E+000	6.85200E-001	0.00000E+000	1.59755E+000	-1.19221E-004	12	...........	-327.56
	1596	798.5	1.55359E+000	6.00939E-001	0.00000E+000	1.55555E+000	-1.20655E-004	12	...........	-327.56
	1638	819.5	1.51180E+000	5.36211E-001	0.00000E+000	1.51355E+000	-1.22055E-004	12	...........	-327.56
	1680	840.5	1.46985E+000	4.65110E-001	0.00000E+000	1.47155E+000	-1.23555E-004	12	...........	-327.56
	1722	861.5	1.42789E+000	3.92796E-001	0.00000E+000	1.42955E+000	-1.20188E-004	12	...........	-327.56
	1764	882.5	1.38600E+000	3.24240E-001	0.00000E+000	1.38755E+000	-1.18021E-004	12	...........	-327.56
	1806	903.5	1.34407E+000	2.58402E-001	0.00000E+000	1.34555E+000	-1.18421E-004	12	...........	-327.56
	1848	924.5	1.30194E+000	1.94978E-001	0.00000E+000	1.30355E+000	-1.19088E-004	11	...........	-327.56
	1890	945.5	1.26012E+000	1.38557E-001	0.00000E+000	1.26155E+000	-1.20421E-004	11	...........	-327.56
[...]
	11289	5645	7.35985E-001	1.52161E-002	0.00000E+000	7.37000E-001	-1.21621E-004	10	...........	-327.56
	11317	5659	7.63994E-001	1.47198E-002	0.00000E+000	7.65000E-001	-1.19355E-004	10	...........	-327.56
	11345	5673	7.91968E-001	1.52083E-002	0.00000E+000	7.93000E-001	-1.19421E-004	10	...........	-327.56
	11373	5687	8.19949E-001	1.51965E-002	0.00000E+000	8.21000E-001	-1.14721E-004	10	...........	-327.56
	11401	5701	8.47953E-001	1.54412E-002	0.00000E+000	8.49000E-001	-1.19321E-004	10	...........	-327.56
	11429	5715	8.75926E-001	1.55958E-002	0.00000E+000	8.77000E-001	-1.16488E-004	10	...........	-327.56
	11457	5729	9.03925E-001	1.54924E-002	0.00000E+000	9.05000E-001	-1.17988E-004	10	...........	-327.56
	11485	5743	9.31858E-001	1.52680E-002	0.00000E+000	9.33000E-001	-1.15521E-004	10	...........	-327.56
	11513	5757	9.59846E-001	1.57117E-002	0.00000E+000	9.61000E-001	-1.14155E-004	10	...........	-327.56
	11541	5771	9.87730E-001	1.59342E-002	0.00000E+000	9.89000E-001	-1.18988E-004	10	...........	-327.56
	11569	5785	1.01576E+000	1.66601E-002	0.00000E+000	1.01700E+000	-1.18455E-004	10	...........	-327.56
	11597	5799	1.04368E+000	1.72831E-002	0.00000E+000	1.04500E+000	-1.16621E-004	10	...........	-327.56
	11625	5813	1.07165E+000	1.78341E-002	0.00000E+000	1.07300E+000	-1.17921E-004	10	...........	-327.56
	11653	5827	1.09964E+000	1.81172E-002	0.00000E+000	1.10100E+000	-1.18455E-004	10	...........	-327.56
	11681	5841	1.12760E+000	1.79401E-002	0.00000E+000	1.12900E+000	-1.18755E-004	10	...........	-327.56
	11709	5855	1.15561E+000	1.76264E-002	0.00000E+000	1.15700E+000	-1.15121E-004	10	...........	-327.56
	11737	5869	1.18357E+000	1.79789E-002	0.00000E+000	1.18500E+000	-1.16888E-004	10	...........	-327.56
	11765	5883	1.21158E+000	1.80776E-002	0.00000E+000	1.21300E+000	-1.17088E-004	10	...........	-327.56
	11793	5897	1.23952E+000	2.00699E-002	0.00000E+000	1.24100E+000	-1.17188E-004	10	...........	-327.56
	11821	5911	1.26738E+000	2.51036E-002	0.00000E+000	1.26900E+000	-1.14588E-004	10	...........	-327.56
	11849	5925	1.29561E+000	3.65147E-002	0.00000E+000	1.29700E+000	-1.22255E-004	11	...........	-327.56
	11877	5939	1.32359E+000	5.75570E-002	0.00000E+000	1.32500E+000	-1.20788E-004	11	...........	-327.56
	11905	5953	1.35148E+000	9.03880E-002	0.00000E+000	1.35300E+000	-1.23555E-004	11	...........	-327.56
	11933	5967	1.37945E+000	1.04532E-001	0.00000E+000	1.38100E+000	-1.17755E-004	11	...........	-327.56
	11961	5981	1.40739E+000	1.35081E-001	0.00000E+000	1.40900E+000	-1.18188E-004	11	...........	-327.56
	11989	5995	1.43531E+000	1.74860E-001	0.00000E+000	1.43700E+000	-1.17155E-004	11	...........	-327.56
	12017	6009	1.46324E+000	2.12828E-001	0.00000E+000	1.46500E+000	-1.13921E-004	11	...........	-327.56
	12045	6023	1.49115E+000	2.56860E-001	0.00000E+000	1.49300E+000	-1.17021E-004	11	...........	-327.56
	12073	6037	1.51939E+000	3.05785E-001	0.00000E+000	1.52100E+000	-1.21421E-004	12	...........	-327.56
	12101	6051	1.54729E+000	3.52169E-001	0.00000E+000	1.54900E+000	-1.20921E-004	12	...........	-327.56
	12129	6065	1.57513E+000	4.03681E-001	0.00000E+000	1.57700E+000	-1.20421E-004	12	...........	-327.56
	12157	6079	1.60314E+000	4.57774E-001	0.00000E+000	1.60500E+000	-1.18688E-004	12	...........	-327.56
	12185	6093	1.63108E+000	5.20397E-001	0.00000E+000	1.63300E+000	-1.18321E-004	12	...........	-327.56
	12213	6107	1.65907E+000	5.78822E-001	0.00000E+000	1.66100E+000	-1.16621E-004	12	...........	-327.56
	12241	6121	1.68698E+000	6.39066E-001	0.00000E+000	1.68900E+000	-1.19388E-004	12	...........	-327.56
	12252	6126.5	1.69798E+000	6.67924E-001	0.00000E+000	1.70000E+000	-1.19488E-004	12	...........	-327.56

File: 240902_16_MCL13_cswWE_CV10_750C_CO2.DTA
EXPLAIN
TAG	CV
TITLE	LABEL	Cyclic Voltammetry	Test Identifier
DATE	LABEL	9/3/2024	Date
TIME	LABEL	16:34:03	Time
NOTES	NOTES	5	Notes...
	cswWE - carbon steel wire
cspWE - carbon steel plate 2x2 tapered

Carbon steel plate counter electrode
Carbon steel wire reference electrode
PSTAT	PSTAT	REF3000-48128	Potentiostat
VINIT	POTEN	0.00000E+000	T	Initial E (V)
VLIMIT1	POTEN	1.70000E+000	F	Scan Limit 1 (V)
VLIMIT2	POTEN	-1.00000E+000	F	Scan Limit 2 (V)
VFINAL	POTEN	1.70000E+000	F	Final E (V)
SCANRATE	QUANT	9.99998E+000	Scan Rate (mV/s)
STEPSIZE	QUANT	1.00000E+000	Step Size (mV)
CYCLES	IQUANT	4	Cycles (#)
IMODE	SELECTOR	0	I/E Range Mode
IRANGE	QUANT	3.00000E-001	Max Current (mA)
AREA	QUANT	1.00000E+000	Sample Area (cm^2)
EQDELAY	QUANT	0.00000E+000	Equil. Time (s)
IRCOMP	SELECTOR	0	IRComp
PFCOR	QUANT	5.00000E+001	PF Corr. (ohm)
SAMPLINGMODE	SELECTOR	1	Sampling Mode
EOC	QUANT	0.2743672	Open Circuit (V)
ELECTRODETYPE	SELECTOR	0	Electrode Type
STRIPPING	TOGGLE	F	Used for Stripping
SEQUENCER	TOGGLE	TRUE	Run as Sequence
PSTATMODEL	IQUANT	5	Pstat Model
PSTATSECTION	LABEL	REF3000-48128	Pstat Section
PSTATSERIALNO	LABEL	48128	Pstat Serial Number
CTRLMODE	IQUANT	1	Control Mode
ELECTROMETER	IQUANT	0	RE=0 or CS=1
IESTAB	IQUANT	2	I/E Stability
CASPEED	IQUANT	4	Control Amp Speed
CONVENTION	IQUANT	1	Current Convention
ICHRANGE	IQUANT	2	Ich Range
ICHRANGEMODE	TOGGLE	F	Ich Auto Range
ICHOFFSETENABLE	TOGGLE	F	Ich Offset Enable
ICHOFFSET	QUANT	0	Ich Offset (V)
ICHFILTER	IQUANT	2	Ich Filter
VCHRANGE	IQUANT	2	Vch Range
VCHRANGEMODE	TOGGLE	F	Vch Auto Range
VCHOFFSETENABLE	TOGGLE	F	Vch Offset Enable
VCHOFFSET	QUANT	0	Vch Offset (V)
VCHFILTER	IQUANT	2	Vch Filter
ACHRANGE	IQUANT	2	Ach Range
ACHOFFSETENABLE	TOGGLE	F	Ach Offset Enable
ACHOFFSET	QUANT	0	Ach Offset (V)
ACHFILTER	IQUANT	1	Ach Filter
IERANGELOWERLIMIT	IQUANT	2	I/E Range Lower Limit
IERANGEMODE	TOGGLE	T	I/E AutoRange
IERANGE	IQUANT	9	I/E Range
POSFEEDENABLE	TOGGLE	F	Positive Feedback IR Comp
POSFEEDRESISTANCE	QUANT	0	Positive Feedback Resistance (ohm)
ACHSELECT	IQUANT	4	Ach Select
SENSECABLEID	IQUANT	14	Sense Cable ID
PWRCABLEID	IQUANT	7	Power Cable ID
DCCALDATE	LABEL	8/16/2024	DC Calibration Date
ACCALDATE	LABEL	8/16/2024	AC Calibration Date
THERMOSELECT	IQUANT	1	Thermo Select
FRAMEWORKVERSION	LABEL	7.10.3	Framework Version
INSTRUMENTVERSION	LABEL	4.91	Instrument Version
COMMVERSION	LABEL	5.10	Communications Version
CPUPLDVERSION	LABEL	6.00	CPU PLD Version
CTRLPLDVERSION	LABEL	3.21	CTRL PLD Version
PSTATPLDVERSION	LABEL	0.00	PSTAT PLD Version
COMPLIANCEVOLTAGE	IQUANT	0	Compliance Voltage
CURVE1	TABLE
	Pt	T	Vf	Im	Vu	Sig	Ach	IERange	Over	Temp
	#	s	V vs. Ref.	A	V	V	V	#	bits	deg C
	0	0.1	2.73944E-001	1.11027E-004	0.00000E+000	2.74350E-001	-1.14088E-004	9	...........	-327.56
	42	4.3	3.15641E-001	2.69892E-003	0.00000E+000	3.16350E-001	-1.17288E-004	9	...........	-327.56
	84	8.5	3.57821E-001	6.11581E-003	0.00000E+000	3.58350E-001	-1.12288E-004	10	...........	-327.56
	126	12.7	3.99721E-001	1.03081E-002	0.00000E+000	4.00350E-001	-1.13088E-004	10	...........	-327.56
	168	16.9	4.41711E-001	1.44931E-002	0.00000E+000	4.42350E-001	-1.15488E-004	10	...........	-327.56
	210	21.1	4.83594E-001	1.67254E-002	0.00000E+000	4.84350E-001	-1.12688E-004	10	...........	-327.56
	252	25.3	5.25484E-001	1.66963E-002	0.00000E+000	5.26350E-001	-1.12688E-004	10	...........	-327.56
	294	29.5	5.67546E-001	1.58805E-002	0.00000E+000	5.68350E-001	-1.27488E-004	10	...........	-327.56
	336	33.7	6.09535E-001	1.47093E-002	0.00000E+000	6.10350E-001	-1.24488E-004	10	...........	-327.56
	378	37.9	6.51543E-001	1.38003E-002	0.00000E+000	6.52350E-001	-1.16288E-004	10	...........	-327.56
	420	42.1	6.93498E-001	1.29973E-002	0.00000E+000	6.94350E-001	-1.19688E-004	10	...........	-327.56
	462	46.3	7.35389E-001	1.26098E-002	0.00000E+000	7.36350E-001	-1.26688E-004	10	...........	-327.56
	504	50.5	7.77443E-001	1.24751E-002	0.00000E+000	7.78350E-001	-1.18888E-004	10	...........	-327.56
	546	54.7	8.19340E-001	1.23707E-002	0.00000E+000	8.20350E-001	-1.31488E-004	10	...........	-327.56
	588	58.9	8.61260E-001	1.24504E-002	0.00000E+000	8.62350E-001	-1.17488E-004	10	...........	-327.56
	630	63.1	9.03290E-001	1.25469E-002	0.00000E+000	9.04350E-001	-1.21088E-004	10	...........	-327.56
	672	67.3	9.45190E-001	1.27915E-002	0.00000E+000	9.46350E-001	-1.15688E-004	10	...........	-327.56
	714	71.5	9.87130E-001	1.31225E-002	0.00000E+000	9.88350E-001	-1.21688E-004	10	...........	-327.56
	756	75.7	1.02915E+000	1.36611E-002	0.00000E+000	1.03035E+000	-1.19888E-004	10	...........	-327.56
	798	79.9	1.07106E+000	1.47868E-002	0.00000E+000	1.07235E+000	-1.14288E-004	10	...........	-327.56
	840	84.1	1.11304E+000	1.68569E-002	0.00000E+000	1.11435E+000	-1.19888E-004	10	...........	-327.56
	882	88.3	1.15494E+000	1.99654E-002	0.00000E+000	1.15635E+000	-1.22088E-004	10	...........	-327.56
	924	92.5	1.19679E+000	2.46544E-002	0.00000E+000	1.19835E+000	-1.20088E-004	10	...........	-327.56
	966	96.7	1.23910E+000	3.39135E-002	0.00000E+000	1.24035E+000	-1.19688E-004	11	...........	-327.56
	1008	100.9	1.28101E+000	5.23079E-002	0.00000E+000	1.28235E+000	-1.27488E-004	11	...........	-327.56
	1050	105.1	1.32298E+000	7.91822E-002	0.00000E+000	1.32435E+000	-1.19888E-004	11	...........	-327.56
	1092	109.3	1.36485E+000	1.15774E-001	0.00000E+000	1.36635E+000	-1.16688E-004	11	...........	-327.56
	1134	113.5	1.40670E+000	1.63549E-001	0.00000E+000	1.40835E+000	-1.23288E-004	11	...........	-327.56
	1176	117.7	1.44853E+000	2.19005E-001	0.00000E+000	1.45035E+000	-1.24688E-004	11	...........	-327.56
	1218	121.9	1.49077E+000	2.78587E-001	0.00000E+000	1.49235E+000	-1.18088E-004	12	...........	-327.56
	1260	126.1	1.53272E+000	3.34249E-001	0.00000E+000	1.53435E+000	-1.19688E-004	12	...........	-327.56
	1302	130.3	1.57455E+000	3.98786E-001	0.00000E+000	1.57635E+000	-1.19488E-004	12	...........	-327.56
	1344	134.5	1.61654E+000	4.66540E-001	0.00000E+000	1.61835E+000	-1.20688E-004	12	...........	-327.56
	1386	138.7	1.65838E+000	5.47688E-001	0.00000E+000	1.66035E+000	-1.19288E-004	12	...........	-327.56
	1428	142.9	1.69637E+000	6.35082E-001	0.00000E+000	1.69835E+000	-1.19288E-004	12	...........	-327.56
	1470	147.1	1.65437E+000	5.79146E-001	0.00000E+000	1.65635E+000	-1.21288E-004	12	...........	-327.56
	1512	151.3	1.61244E+000	5.37223E-001	0.00000E+000	1.61435E+000	-1.15488E-004	12	...........	-327.56
	1554	155.5	1.57057E+000	4.82880E-001	0.00000E+000	1.57235E+000	-1.31688E-004	12	...........	-327.56
	1596	159.7	1.52860E+000	4.30713E-001	0.00000E+000	1.53035E+000	-1.22688E-004	12	...........	-327.56
	1638	163.9	1.48673E+000	3.69409E-001	0.00000E+000	1.48835E+000	-1.24088E-004	12	...........	-327.56
	1680	168.1	1.44477E+000	3.14255E-001	0.00000E+000	1.44635E+000	-1.21888E-004	12	...........	-327.56
	1722	172.3	1.40279E+000	2.58962E-001	0.00000E+000	1.40435E+000	-1.25488E-004	12	...........	-327.56
	1764	176.5	1.36070E+000	2.05250E-001	0.00000E+000	1.36235E+000	-1.16288E-004	11	...........	-327.56
	1806	180.7	1.31876E+000	1.50852E-001	0.00000E+000	1.32035E+000	-1.24088E-004	11	...........	-327.56
	1848	184.9	1.27693E+000	1.03412E-001	0.00000E+000	1.27835E+000	-1.17888E-004	11	...........	-327.56
	1890	189.1	1.23508E+000	6.28517E-002	0.00000E+000	1.23635E+000	-1.19488E-004	11	...........	-327.56
[...]
	22091	2209.2	7.63979E-001	1.52560E-002	0.00000E+000	7.65000E-001	-1.16288E-004	10	...........	-327.56
	22119	2212	7.91978E-001	1.50425E-002	0.00000E+000	7.93000E-001	-1.23488E-004	10	...........	-327.56
	22147	2214.8	8.19952E-001	1.45950E-002	0.00000E+000	8.21000E-001	-1.19088E-004	10	...........	-327.56
	22175	2217.6	8.47962E-001	1.47260E-002	0.00000E+000	8.49000E-001	-1.24888E-004	10	...........	-327.56
	22203	2220.4	8.75935E-001	1.46048E-002	0.00000E+000	8.77000E-001	-1.11088E-004	10	...........	-327.56
	22231	2223.2	9.03925E-001	1.50508E-002	0.00000E+000	9.05000E-001	-1.14688E-004	10	...........	-327.56
	22259	2226	9.31862E-001	1.48751E-002	0.00000E+000	9.33000E-001	-1.11088E-004	10	...........	-327.56
	22287	2228.8	9.59841E-001	1.53995E-002	0.00000E+000	9.61000E-001	-1.13888E-004	10	...........	-327.56
	22315	2231.6	9.87729E-001	1.54506E-002	0.00000E+000	9.89000E-001	-1.18488E-004	10	...........	-327.56
	22343	2234.4	1.01579E+000	1.60930E-002	0.00000E+000	1.01700E+000	-1.21488E-004	10	...........	-327.56
	22371	2237.2	1.04370E+000	1.68145E-002	0.00000E+000	1.04500E+000	-1.17088E-004	10	...........	-327.56
	22399	2240	1.07165E+000	1.81062E-002	0.00000E+000	1.07300E+000	-1.24688E-004	10	...........	-327.56
	22427	2242.8	1.09963E+000	1.98258E-002	0.00000E+000	1.10100E+000	-1.18888E-004	10	...........	-327.56
	22455	2245.6	1.12756E+000	2.27761E-002	0.00000E+000	1.12900E+000	-1.16288E-004	10	...........	-327.56
	22483	2248.4	1.15581E+000	2.75241E-002	0.00000E+000	1.15700E+000	-1.19088E-004	11	...........	-327.56
	22511	2251.2	1.18378E+000	3.48281E-002	0.00000E+000	1.18500E+000	-1.24888E-004	11	...........	-327.56
	22539	2254	1.21174E+000	4.40408E-002	0.00000E+000	1.21300E+000	-1.20888E-004	11	...........	-327.56
	22567	2256.8	1.23970E+000	5.56224E-002	0.00000E+000	1.24100E+000	-1.16688E-004	11	...........	-327.56
	22595	2259.6	1.26757E+000	6.97075E-002	0.00000E+000	1.26900E+000	-1.24288E-004	11	...........	-327.56
	22623	2262.4	1.29555E+000	8.60950E-002	0.00000E+000	1.29700E+000	-1.21488E-004	11	...........	-327.56
	22651	2265.2	1.32352E+000	1.05715E-001	0.00000E+000	1.32500E+000	-1.22488E-004	11	...........	-327.56
	22679	2268	1.35143E+000	1.23213E-001	0.00000E+000	1.35300E+000	-1.23688E-004	11	...........	-327.56
	22707	2270.8	1.37938E+000	1.46304E-001	0.00000E+000	1.38100E+000	-1.20088E-004	11	...........	-327.56
	22735	2273.6	1.40732E+000	1.75324E-001	0.00000E+000	1.40900E+000	-1.15688E-004	11	...........	-327.56
	22763	2276.4	1.43523E+000	2.08467E-001	0.00000E+000	1.43700E+000	-1.15688E-004	11	...........	-327.56
	22791	2279.2	1.46318E+000	2.42307E-001	0.00000E+000	1.46500E+000	-1.12088E-004	11	...........	-327.56
	22819	2282	1.49142E+000	2.73917E-001	0.00000E+000	1.49300E+000	-1.19088E-004	12	...........	-327.56
	22847	2284.8	1.51938E+000	3.05063E-001	0.00000E+000	1.52100E+000	-1.15688E-004	12	...........	-327.56
	22875	2287.6	1.54730E+000	3.37134E-001	0.00000E+000	1.54900E+000	-1.13288E-004	12	...........	-327.56
	22903	2290.4	1.57516E+000	3.73446E-001	0.00000E+000	1.57700E+000	-1.25688E-004	12	...........	-327.56
	22931	2293.2	1.60315E+000	4.16894E-001	0.00000E+000	1.60500E+000	-1.18688E-004	12	...........	-327.56
	22959	2296	1.63109E+000	4.84416E-001	0.00000E+000	1.63300E+000	-1.25888E-004	12	...........	-327.56
	22987	2298.8	1.65910E+000	5.14596E-001	0.00000E+000	1.66100E+000	-1.20888E-004	12	...........	-327.56
	23015	2301.6	1.68702E+000	5.58765E-001	0.00000E+000	1.68900E+000	-1.12488E-004	12	...........	-327.56
	23026	2302.7	1.69802E+000	6.03945E-001	0.00000E+000	1.70000E+000	-1.20488E-004	12	...........	-327.56