Folder: ectools/testing/data (part 8)

File: 240902_13_MCL13_cswWE_CV1_750C_CO2.DTA
EXPLAIN
TAG	CV
TITLE	LABEL	Cyclic Voltammetry	Test Identifier
DATE	LABEL	9/3/2024	Date
TIME	LABEL	8:08:38	Time
NOTES	NOTES	5	Notes...
	cswWE - carbon steel wire
cspWE - carbon steel plate 2x2 tapered

Carbon steel plate counter electrode
Carbon steel wire reference electrode
PSTAT	PSTAT	REF3000-48128	Potentiostat
VINIT	POTEN	0.00000E+000	T	Initial E (V)
VLIMIT1	POTEN	1.70000E+000	F	Scan Limit 1 (V)
VLIMIT2	POTEN	-1.00000E+000	F	Scan Limit 2 (V)
VFINAL	POTEN	1.70000E+000	F	Final E (V)
SCANRATE	QUANT	9.99998E-001	Scan Rate (mV/s)
STEPSIZE	QUANT	1.00000E+000	Step Size (mV)
CYCLES	IQUANT	2	Cycles (#)
IMODE	SELECTOR	0	I/E Range Mode
IRANGE	QUANT	3.00000E-001	Max Current (mA)
AREA	QUANT	1.00000E+000	Sample Area (cm^2)
EQDELAY	QUANT	0.00000E+000	Equil. Time (s)
IRCOMP	SELECTOR	0	IRComp
PFCOR	QUANT	5.00000E+001	PF Corr. (ohm)
SAMPLINGMODE	SELECTOR	1	Sampling Mode
EOC	QUANT	0.5911781	Open Circuit (V)
ELECTRODETYPE	SELECTOR	0	Electrode Type
STRIPPING	TOGGLE	F	Used for Stripping
SEQUENCER	TOGGLE	TRUE	Run as Sequence
PSTATMODEL	IQUANT	5	Pstat Model
PSTATSECTION	LABEL	REF3000-48128	Pstat Section
PSTATSERIALNO	LABEL	48128	Pstat Serial Number
CTRLMODE	IQUANT	1	Control Mode
ELECTROMETER	IQUANT	0	RE=0 or CS=1
IESTAB	IQUANT	2	I/E Stability
CASPEED	IQUANT	4	Control Amp Speed
CONVENTION	IQUANT	1	Current Convention
ICHRANGE	IQUANT	2	Ich Range
ICHRANGEMODE	TOGGLE	F	Ich Auto Range
ICHOFFSETENABLE	TOGGLE	F	Ich Offset Enable
ICHOFFSET	QUANT	0	Ich Offset (V)
ICHFILTER	IQUANT	3	Ich Filter
VCHRANGE	IQUANT	2	Vch Range
VCHRANGEMODE	TOGGLE	F	Vch Auto Range
VCHOFFSETENABLE	TOGGLE	F	Vch Offset Enable
VCHOFFSET	QUANT	0	Vch Offset (V)
VCHFILTER	IQUANT	3	Vch Filter
ACHRANGE	IQUANT	2	Ach Range
ACHOFFSETENABLE	TOGGLE	F	Ach Offset Enable
ACHOFFSET	QUANT	0	Ach Offset (V)
ACHFILTER	IQUANT	1	Ach Filter
IERANGELOWERLIMIT	IQUANT	2	I/E Range Lower Limit
IERANGEMODE	TOGGLE	T	I/E AutoRange
IERANGE	IQUANT	9	I/E Range
POSFEEDENABLE	TOGGLE	F	Positive Feedback IR Comp
POSFEEDRESISTANCE	QUANT	0	Positive Feedback Resistance (ohm)
ACHSELECT	IQUANT	4	Ach Select
SENSECABLEID	IQUANT	14	Sense Cable ID
PWRCABLEID	IQUANT	7	Power Cable ID
DCCALDATE	LABEL	8/16/2024	DC Calibration Date
ACCALDATE	LABEL	8/16/2024	AC Calibration Date
THERMOSELECT	IQUANT	1	Thermo Select
FRAMEWORKVERSION	LABEL	7.10.3	Framework Version
INSTRUMENTVERSION	LABEL	4.91	Instrument Version
COMMVERSION	LABEL	5.10	Communications Version
CPUPLDVERSION	LABEL	6.00	CPU PLD Version
CTRLPLDVERSION	LABEL	3.21	CTRL PLD Version
PSTATPLDVERSION	LABEL	0.00	PSTAT PLD Version
COMPLIANCEVOLTAGE	IQUANT	0	Compliance Voltage
CURVE1	TABLE
	Pt	T	Vf	Im	Vu	Sig	Ach	IERange	Over	Temp
	#	s	V vs. Ref.	A	V	V	V	#	bits	deg C
	0	1	5.90532E-001	4.90732E-004	0.00000E+000	5.91200E-001	-9.60881E-005	9	...........	-327.56
	39	40	6.29430E-001	3.84629E-003	0.00000E+000	6.30200E-001	-1.06788E-004	10	...........	-327.56
	78	79	6.68454E-001	4.74548E-003	0.00000E+000	6.69200E-001	-1.03971E-004	10	...........	-327.56
	117	118	7.07378E-001	4.89469E-003	0.00000E+000	7.08200E-001	-1.04238E-004	10	...........	-327.56
	156	157	7.46379E-001	5.06098E-003	0.00000E+000	7.47200E-001	-1.02455E-004	10	...........	-327.56
	195	196	7.85306E-001	5.08362E-003	0.00000E+000	7.86200E-001	-1.06305E-004	10	...........	-327.56
	234	235	8.24296E-001	4.91170E-003	0.00000E+000	8.25200E-001	-1.01788E-004	10	...........	-327.56
	273	274	8.63200E-001	4.98373E-003	0.00000E+000	8.64200E-001	-1.05221E-004	10	...........	-327.56
	312	313	9.02261E-001	5.20962E-003	0.00000E+000	9.03200E-001	-1.04688E-004	10	...........	-327.56
	351	352	9.41117E-001	5.80546E-003	0.00000E+000	9.42200E-001	-1.01005E-004	10	...........	-327.56
	390	391	9.80104E-001	8.63179E-003	0.00000E+000	9.81200E-001	-1.05521E-004	10	...........	-327.56
	429	430	1.01896E+000	1.59240E-002	0.00000E+000	1.02020E+000	-1.05555E-004	10	...........	-327.56
	468	469	1.05812E+000	2.90776E-002	0.00000E+000	1.05920E+000	-1.05305E-004	11	...........	-327.56
	507	508	1.09701E+000	4.79128E-002	0.00000E+000	1.09820E+000	-1.06588E-004	11	...........	-327.56
	546	547	1.13594E+000	7.28790E-002	0.00000E+000	1.13720E+000	-1.05805E-004	11	...........	-327.56
	585	586	1.17481E+000	1.05088E-001	0.00000E+000	1.17620E+000	-1.05005E-004	11	...........	-327.56
	624	625	1.21375E+000	1.53914E-001	0.00000E+000	1.21520E+000	-1.02488E-004	11	...........	-327.56
	663	664	1.25263E+000	2.18767E-001	0.00000E+000	1.25420E+000	-1.03788E-004	11	...........	-327.56
	702	703	1.29181E+000	2.91277E-001	0.00000E+000	1.29320E+000	-1.02221E-004	12	...........	-327.56
	741	742	1.33068E+000	3.68732E-001	0.00000E+000	1.33220E+000	-1.03488E-004	12	...........	-327.56
	780	781	1.36959E+000	4.47703E-001	0.00000E+000	1.37120E+000	-1.04205E-004	12	...........	-327.56
	819	820	1.40849E+000	5.31684E-001	0.00000E+000	1.41020E+000	-1.03621E-004	12	...........	-327.56
	858	859	1.44733E+000	6.08703E-001	0.00000E+000	1.44920E+000	-1.08855E-004	12	...........	-327.56
	897	898	1.48634E+000	6.84300E-001	0.00000E+000	1.48820E+000	-1.07488E-004	12	...........	-327.56
	936	937	1.52520E+000	7.62355E-001	0.00000E+000	1.52720E+000	-1.05488E-004	12	...........	-327.56
	975	976	1.56417E+000	8.41166E-001	0.00000E+000	1.56620E+000	-1.05805E-004	12	...........	-327.56
	1014	1015	1.60310E+000	9.14429E-001	0.00000E+000	1.60520E+000	-1.02971E-004	12	...........	-327.56
	1053	1054	1.64200E+000	9.96141E-001	0.00000E+000	1.64420E+000	-1.00671E-004	12	...........	-327.56
	1092	1093	1.68089E+000	1.06380E+000	0.00000E+000	1.68320E+000	-1.04621E-004	12	...........	-327.56
	1131	1132	1.67593E+000	1.06139E+000	0.00000E+000	1.67820E+000	-1.03705E-004	12	...........	-327.56
	1170	1171	1.63700E+000	9.90139E-001	0.00000E+000	1.63920E+000	-1.06221E-004	12	...........	-327.56
	1209	1210	1.59809E+000	9.09262E-001	0.00000E+000	1.60020E+000	-1.01455E-004	12	...........	-327.56
	1248	1249	1.55911E+000	8.36051E-001	0.00000E+000	1.56120E+000	-1.00338E-004	12	...........	-327.56
	1287	1288	1.52030E+000	7.48214E-001	0.00000E+000	1.52220E+000	-1.01488E-004	12	...........	-327.56
	1326	1327	1.48134E+000	6.66904E-001	0.00000E+000	1.48320E+000	-1.02071E-004	12	...........	-327.56
	1365	1366	1.44243E+000	5.88348E-001	0.00000E+000	1.44420E+000	-1.04971E-004	12	...........	-327.56
	1404	1405	1.40347E+000	5.13154E-001	0.00000E+000	1.40520E+000	-1.02938E-004	12	...........	-327.56
	1443	1444	1.36461E+000	4.39536E-001	0.00000E+000	1.36620E+000	-1.04338E-004	12	...........	-327.56
	1482	1483	1.32565E+000	3.71267E-001	0.00000E+000	1.32720E+000	-1.08338E-004	12	...........	-327.56
	1521	1522	1.28677E+000	3.05227E-001	0.00000E+000	1.28820E+000	-1.01888E-004	12	...........	-327.56
	1560	1561	1.24783E+000	2.45908E-001	0.00000E+000	1.24920E+000	-1.02088E-004	12	...........	-327.56
	1599	1600	1.20869E+000	1.88748E-001	0.00000E+000	1.21020E+000	-9.91048E-005	11	...........	-327.56
	1638	1639	1.16974E+000	1.41599E-001	0.00000E+000	1.17120E+000	-1.03288E-004	11	...........	-327.56
	1677	1678	1.13089E+000	9.91086E-002	0.00000E+000	1.13220E+000	-1.03338E-004	11	...........	-327.56
	1716	1717	1.09195E+000	6.41321E-002	0.00000E+000	1.09320E+000	-9.98548E-005	11	...........	-327.56
	1755	1756	1.05309E+000	3.75207E-002	0.00000E+000	1.05420E+000	-1.00438E-004	11	...........	-327.56
	1794	1795	1.01387E+000	1.89558E-002	0.00000E+000	1.01520E+000	-1.00021E-004	10	...........	-327.56
[...]
	10974	10975	7.63925E-001	1.97796E-002	0.00000E+000	7.65000E-001	-1.00571E-004	10	...........	-327.56
	11002	11003	7.91936E-001	1.90309E-002	0.00000E+000	7.93000E-001	-1.02771E-004	10	...........	-327.56
	11030	11031	8.19894E-001	1.82173E-002	0.00000E+000	8.21000E-001	-9.57048E-005	10	...........	-327.56
	11058	11059	8.47917E-001	1.76062E-002	0.00000E+000	8.49000E-001	-1.03055E-004	10	...........	-327.56
	11086	11087	8.75896E-001	1.69740E-002	0.00000E+000	8.77000E-001	-9.62881E-005	10	...........	-327.56
	11114	11115	9.03899E-001	1.64497E-002	0.00000E+000	9.05000E-001	-1.02238E-004	10	...........	-327.56
	11142	11143	9.31845E-001	1.60762E-002	0.00000E+000	9.33000E-001	-9.97548E-005	10	...........	-327.56
	11170	11171	9.59817E-001	1.66876E-002	0.00000E+000	9.61000E-001	-9.80714E-005	10	...........	-327.56
	11198	11199	9.87680E-001	1.79177E-002	0.00000E+000	9.89000E-001	-1.02421E-004	10	...........	-327.56
	11226	11227	1.01568E+000	2.02793E-002	0.00000E+000	1.01700E+000	-1.01055E-004	10	...........	-327.56
	11254	11255	1.04359E+000	2.36714E-002	0.00000E+000	1.04500E+000	-9.90381E-005	10	...........	-327.56
	11282	11283	1.07189E+000	2.71580E-002	0.00000E+000	1.07300E+000	-1.02505E-004	11	...........	-327.56
	11310	11311	1.09983E+000	2.88746E-002	0.00000E+000	1.10100E+000	-1.02855E-004	11	...........	-327.56
	11338	11339	1.12783E+000	2.80847E-002	0.00000E+000	1.12900E+000	-1.03321E-004	11	...........	-327.56
	11366	11367	1.15580E+000	2.76463E-002	0.00000E+000	1.15700E+000	-1.02905E-004	11	...........	-327.56
	11394	11395	1.18376E+000	3.24760E-002	0.00000E+000	1.18500E+000	-1.01938E-004	11	...........	-327.56
	11422	11423	1.21174E+000	4.20463E-002	0.00000E+000	1.21300E+000	-1.03488E-004	11	...........	-327.56
	11450	11451	1.23969E+000	5.59330E-002	0.00000E+000	1.24100E+000	-1.03488E-004	11	...........	-327.56
	11478	11479	1.26755E+000	7.66916E-002	0.00000E+000	1.26900E+000	-1.00971E-004	11	...........	-327.56
	11506	11507	1.29550E+000	1.05269E-001	0.00000E+000	1.29700E+000	-1.01555E-004	11	...........	-327.56
	11534	11535	1.32345E+000	1.45569E-001	0.00000E+000	1.32500E+000	-9.93381E-005	11	...........	-327.56
	11562	11563	1.35131E+000	1.90243E-001	0.00000E+000	1.35300E+000	-1.01071E-004	11	...........	-327.56
	11590	11591	1.37918E+000	2.40874E-001	0.00000E+000	1.38100E+000	-1.03638E-004	11	...........	-327.56
	11618	11619	1.40742E+000	2.92957E-001	0.00000E+000	1.40900E+000	-1.01121E-004	12	...........	-327.56
	11646	11647	1.43538E+000	3.43848E-001	0.00000E+000	1.43700E+000	-1.03438E-004	12	...........	-327.56
	11674	11675	1.46335E+000	3.94600E-001	0.00000E+000	1.46500E+000	-1.03388E-004	12	...........	-327.56
	11702	11703	1.49128E+000	4.55929E-001	0.00000E+000	1.49300E+000	-1.01188E-004	12	...........	-327.56
	11730	11731	1.51920E+000	5.31819E-001	0.00000E+000	1.52100E+000	-1.01471E-004	12	...........	-327.56
	11758	11759	1.54712E+000	6.00814E-001	0.00000E+000	1.54900E+000	-1.04505E-004	12	...........	-327.56
	11786	11787	1.57497E+000	6.62480E-001	0.00000E+000	1.57700E+000	-1.01105E-004	12	...........	-327.56
	11814	11815	1.60297E+000	7.36133E-001	0.00000E+000	1.60500E+000	-1.01905E-004	12	...........	-327.56
	11842	11843	1.63087E+000	7.95759E-001	0.00000E+000	1.63300E+000	-1.03571E-004	12	...........	-327.56
	11870	11871	1.65880E+000	8.61084E-001	0.00000E+000	1.66100E+000	-1.02105E-004	12	...........	-327.56
	11898	11899	1.68677E+000	9.17929E-001	0.00000E+000	1.68900E+000	-1.02421E-004	12	...........	-327.56
	11909	11910	1.69780E+000	9.40963E-001	0.00000E+000	1.70000E+000	-1.02371E-004	12	...........	-327.56

File: 240902_14_MCL13_cswWE_CV1_750C_CO2.DTA
EXPLAIN
TAG	CV
TITLE	LABEL	Cyclic Voltammetry	Test Identifier
DATE	LABEL	9/3/2024	Date
TIME	LABEL	11:28:09	Time
NOTES	NOTES	5	Notes...
	cswWE - carbon steel wire
cspWE - carbon steel plate 2x2 tapered

Carbon steel plate counter electrode
Carbon steel wire reference electrode
PSTAT	PSTAT	REF3000-48128	Potentiostat
VINIT	POTEN	0.00000E+000	T	Initial E (V)
VLIMIT1	POTEN	1.70000E+000	F	Scan Limit 1 (V)
VLIMIT2	POTEN	-8.00000E-001	F	Scan Limit 2 (V)
VFINAL	POTEN	1.70000E+000	F	Final E (V)
SCANRATE	QUANT	9.99998E-001	Scan Rate (mV/s)
STEPSIZE	QUANT	1.00000E+000	Step Size (mV)
CYCLES	IQUANT	2	Cycles (#)
IMODE	SELECTOR	0	I/E Range Mode
IRANGE	QUANT	3.00000E-001	Max Current (mA)
AREA	QUANT	1.00000E+000	Sample Area (cm^2)
EQDELAY	QUANT	0.00000E+000	Equil. Time (s)
IRCOMP	SELECTOR	0	IRComp
PFCOR	QUANT	5.00000E+001	PF Corr. (ohm)
SAMPLINGMODE	SELECTOR	1	Sampling Mode
EOC	QUANT	0.3625399	Open Circuit (V)
ELECTRODETYPE	SELECTOR	0	Electrode Type
STRIPPING	TOGGLE	F	Used for Stripping
SEQUENCER	TOGGLE	TRUE	Run as Sequence
PSTATMODEL	IQUANT	5	Pstat Model
PSTATSECTION	LABEL	REF3000-48128	Pstat Section
PSTATSERIALNO	LABEL	48128	Pstat Serial Number
CTRLMODE	IQUANT	1	Control Mode
ELECTROMETER	IQUANT	0	RE=0 or CS=1
IESTAB	IQUANT	2	I/E Stability
CASPEED	IQUANT	4	Control Amp Speed
CONVENTION	IQUANT	1	Current Convention
ICHRANGE	IQUANT	2	Ich Range
ICHRANGEMODE	TOGGLE	F	Ich Auto Range
ICHOFFSETENABLE	TOGGLE	F	Ich Offset Enable
ICHOFFSET	QUANT	0	Ich Offset (V)
ICHFILTER	IQUANT	3	Ich Filter
VCHRANGE	IQUANT	2	Vch Range
VCHRANGEMODE	TOGGLE	F	Vch Auto Range
VCHOFFSETENABLE	TOGGLE	F	Vch Offset Enable
VCHOFFSET	QUANT	0	Vch Offset (V)
VCHFILTER	IQUANT	3	Vch Filter
ACHRANGE	IQUANT	2	Ach Range
ACHOFFSETENABLE	TOGGLE	F	Ach Offset Enable
ACHOFFSET	QUANT	0	Ach Offset (V)
ACHFILTER	IQUANT	1	Ach Filter
IERANGELOWERLIMIT	IQUANT	2	I/E Range Lower Limit
IERANGEMODE	TOGGLE	T	I/E AutoRange
IERANGE	IQUANT	9	I/E Range
POSFEEDENABLE	TOGGLE	F	Positive Feedback IR Comp
POSFEEDRESISTANCE	QUANT	0	Positive Feedback Resistance (ohm)
ACHSELECT	IQUANT	4	Ach Select
SENSECABLEID	IQUANT	14	Sense Cable ID
PWRCABLEID	IQUANT	7	Power Cable ID
DCCALDATE	LABEL	8/16/2024	DC Calibration Date
ACCALDATE	LABEL	8/16/2024	AC Calibration Date
THERMOSELECT	IQUANT	1	Thermo Select
FRAMEWORKVERSION	LABEL	7.10.3	Framework Version
INSTRUMENTVERSION	LABEL	4.91	Instrument Version
COMMVERSION	LABEL	5.10	Communications Version
CPUPLDVERSION	LABEL	6.00	CPU PLD Version
CTRLPLDVERSION	LABEL	3.21	CTRL PLD Version
PSTATPLDVERSION	LABEL	0.00	PSTAT PLD Version
COMPLIANCEVOLTAGE	IQUANT	0	Compliance Voltage
CURVE1	TABLE
	Pt	T	Vf	Im	Vu	Sig	Ach	IERange	Over	Temp
	#	s	V vs. Ref.	A	V	V	V	#	bits	deg C
	0	1	3.62002E-001	1.00798E-003	0.00000E+000	3.62550E-001	-9.68381E-005	9	...........	-327.56
	39	40	4.01002E-001	4.63439E-003	0.00000E+000	4.01550E-001	-1.11971E-004	10	...........	-327.56
	78	79	4.40025E-001	5.84933E-003	0.00000E+000	4.40550E-001	-1.10321E-004	10	...........	-327.56
	117	118	4.78930E-001	6.17626E-003	0.00000E+000	4.79550E-001	-1.10688E-004	10	...........	-327.56
	156	157	5.17905E-001	6.59661E-003	0.00000E+000	5.18550E-001	-1.08188E-004	10	...........	-327.56
	195	196	5.56817E-001	6.82568E-003	0.00000E+000	5.57550E-001	-1.10555E-004	10	...........	-327.56
	234	235	5.95871E-001	7.05503E-003	0.00000E+000	5.96550E-001	-1.06855E-004	10	...........	-327.56
	273	274	6.34762E-001	6.96893E-003	0.00000E+000	6.35550E-001	-1.13388E-004	10	...........	-327.56
	312	313	6.73802E-001	6.88701E-003	0.00000E+000	6.74550E-001	-1.08955E-004	10	...........	-327.56
	351	352	7.12737E-001	6.83114E-003	0.00000E+000	7.13550E-001	-1.08738E-004	10	...........	-327.56
	390	391	7.51726E-001	6.52866E-003	0.00000E+000	7.52550E-001	-1.05838E-004	10	...........	-327.56
	429	430	7.90655E-001	6.56104E-003	0.00000E+000	7.91550E-001	-1.10188E-004	10	...........	-327.56
	468	469	8.29618E-001	6.52285E-003	0.00000E+000	8.30550E-001	-1.09305E-004	10	...........	-327.56
	507	508	8.68579E-001	6.76271E-003	0.00000E+000	8.69550E-001	-1.07021E-004	10	...........	-327.56
	546	547	9.07571E-001	7.39141E-003	0.00000E+000	9.08550E-001	-1.08538E-004	10	...........	-327.56
	585	586	9.46440E-001	8.09463E-003	0.00000E+000	9.47550E-001	-1.11955E-004	10	...........	-327.56
	624	625	9.85440E-001	1.09101E-002	0.00000E+000	9.86550E-001	-1.06255E-004	10	...........	-327.56
	663	664	1.02431E+000	1.49353E-002	0.00000E+000	1.02555E+000	-1.04888E-004	10	...........	-327.56
	702	703	1.06315E+000	2.04199E-002	0.00000E+000	1.06455E+000	-1.06971E-004	10	...........	-327.56
	741	742	1.10226E+000	1.88313E-002	0.00000E+000	1.10355E+000	-1.06838E-004	10	...........	-327.56
	780	781	1.14111E+000	1.83921E-002	0.00000E+000	1.14255E+000	-1.07405E-004	10	...........	-327.56
	819	820	1.18006E+000	2.47055E-002	0.00000E+000	1.18155E+000	-1.07938E-004	10	...........	-327.56
	858	859	1.21921E+000	3.74622E-002	0.00000E+000	1.22055E+000	-1.11688E-004	11	...........	-327.56
	897	898	1.25825E+000	5.77324E-002	0.00000E+000	1.25955E+000	-1.07288E-004	11	...........	-327.56
	936	937	1.29710E+000	9.22127E-002	0.00000E+000	1.29855E+000	-1.11238E-004	11	...........	-327.56
	975	976	1.33602E+000	1.37081E-001	0.00000E+000	1.33755E+000	-1.11488E-004	11	...........	-327.56
	1014	1015	1.37481E+000	2.11454E-001	0.00000E+000	1.37655E+000	-1.09388E-004	11	...........	-327.56
	1053	1054	1.41402E+000	2.88102E-001	0.00000E+000	1.41555E+000	-1.08788E-004	12	...........	-327.56
	1092	1093	1.45289E+000	3.59924E-001	0.00000E+000	1.45455E+000	-1.11555E-004	12	...........	-327.56
	1131	1132	1.49186E+000	4.38387E-001	0.00000E+000	1.49355E+000	-1.10121E-004	12	...........	-327.56
	1170	1171	1.53072E+000	5.38921E-001	0.00000E+000	1.53255E+000	-1.12255E-004	12	...........	-327.56
	1209	1210	1.56965E+000	6.32170E-001	0.00000E+000	1.57155E+000	-1.12188E-004	12	...........	-327.56
	1248	1249	1.60852E+000	7.29786E-001	0.00000E+000	1.61055E+000	-1.12305E-004	12	...........	-327.56
	1287	1288	1.64743E+000	8.36261E-001	0.00000E+000	1.64955E+000	-1.11838E-004	12	...........	-327.56
	1326	1327	1.68635E+000	9.33783E-001	0.00000E+000	1.68855E+000	-1.11371E-004	12	...........	-327.56
	1365	1366	1.66938E+000	9.19414E-001	0.00000E+000	1.67155E+000	-1.07905E-004	12	...........	-327.56
	1404	1405	1.63040E+000	8.41973E-001	0.00000E+000	1.63255E+000	-1.08955E-004	12	...........	-327.56
	1443	1444	1.59153E+000	7.81518E-001	0.00000E+000	1.59355E+000	-1.10671E-004	12	...........	-327.56
	1482	1483	1.55256E+000	6.96981E-001	0.00000E+000	1.55455E+000	-1.07955E-004	12	...........	-327.56
	1521	1522	1.51374E+000	6.16098E-001	0.00000E+000	1.51555E+000	-1.07771E-004	12	...........	-327.56
	1560	1561	1.47475E+000	5.07324E-001	0.00000E+000	1.47655E+000	-1.05555E-004	12	...........	-327.56
	1599	1600	1.43588E+000	4.58723E-001	0.00000E+000	1.43755E+000	-1.08005E-004	12	...........	-327.56
	1638	1639	1.39687E+000	3.87885E-001	0.00000E+000	1.39855E+000	-1.12421E-004	12	...........	-327.56
	1677	1678	1.35805E+000	2.79743E-001	0.00000E+000	1.35955E+000	-1.12005E-004	12	...........	-327.56
	1716	1717	1.31887E+000	2.11141E-001	0.00000E+000	1.32055E+000	-1.03955E-004	11	...........	-327.56
	1755	1756	1.28003E+000	1.45525E-001	0.00000E+000	1.28155E+000	-1.06621E-004	11	...........	-327.56
	1794	1795	1.24119E+000	9.38941E-002	0.00000E+000	1.24255E+000	-1.08621E-004	11	...........	-327.56
[...]
	10475	10476	8.37944E-001	1.32622E-002	0.00000E+000	8.39000E-001	-1.12938E-004	10	...........	-327.56
	10501	10502	8.63946E-001	1.33863E-002	0.00000E+000	8.65000E-001	-1.10988E-004	10	...........	-327.56
	10527	10528	8.89906E-001	1.28432E-002	0.00000E+000	8.91000E-001	-1.13405E-004	10	...........	-327.56
	10553	10554	9.15904E-001	1.26226E-002	0.00000E+000	9.17000E-001	-1.10038E-004	10	...........	-327.56
	10579	10580	9.41849E-001	1.18675E-002	0.00000E+000	9.43000E-001	-1.13171E-004	10	...........	-327.56
	10605	10606	9.67898E-001	1.17358E-002	0.00000E+000	9.69000E-001	-1.12621E-004	10	...........	-327.56
	10631	10632	9.93830E-001	1.20649E-002	0.00000E+000	9.95000E-001	-1.12505E-004	10	...........	-327.56
	10657	10658	1.01982E+000	1.21393E-002	0.00000E+000	1.02100E+000	-1.11405E-004	10	...........	-327.56
	10683	10684	1.04577E+000	1.31932E-002	0.00000E+000	1.04700E+000	-1.14138E-004	10	...........	-327.56
	10709	10710	1.07175E+000	1.38477E-002	0.00000E+000	1.07300E+000	-1.12605E-004	10	...........	-327.56
	10735	10736	1.09772E+000	1.48185E-002	0.00000E+000	1.09900E+000	-1.10888E-004	10	...........	-327.56
	10761	10762	1.12371E+000	1.46348E-002	0.00000E+000	1.12500E+000	-1.10905E-004	10	...........	-327.56
	10787	10788	1.14965E+000	1.36181E-002	0.00000E+000	1.15100E+000	-1.11021E-004	10	...........	-327.56
	10813	10814	1.17565E+000	1.31932E-002	0.00000E+000	1.17700E+000	-1.12488E-004	10	...........	-327.56
	10839	10840	1.20159E+000	1.44073E-002	0.00000E+000	1.20300E+000	-1.14805E-004	10	...........	-327.56
	10865	10866	1.22754E+000	1.86574E-002	0.00000E+000	1.22900E+000	-1.10121E-004	10	...........	-327.56
	10891	10892	1.25345E+000	2.62281E-002	0.00000E+000	1.25500E+000	-1.06855E-004	10	...........	-327.56
	10917	10918	1.27969E+000	3.61933E-002	0.00000E+000	1.28100E+000	-1.11488E-004	11	...........	-327.56
	10943	10944	1.30565E+000	5.08897E-002	0.00000E+000	1.30700E+000	-1.13621E-004	11	...........	-327.56
	10969	10970	1.33155E+000	7.88374E-002	0.00000E+000	1.33300E+000	-1.13371E-004	11	...........	-327.56
	10995	10996	1.35749E+000	1.08982E-001	0.00000E+000	1.35900E+000	-1.07988E-004	11	...........	-327.56
	11021	11022	1.38341E+000	1.47183E-001	0.00000E+000	1.38500E+000	-1.10105E-004	11	...........	-327.56
	11047	11048	1.40939E+000	1.77139E-001	0.00000E+000	1.41100E+000	-1.09205E-004	11	...........	-327.56
	11073	11074	1.43525E+000	2.14051E-001	0.00000E+000	1.43700E+000	-1.09971E-004	11	...........	-327.56
	11099	11100	1.46119E+000	2.49025E-001	0.00000E+000	1.46300E+000	-1.09888E-004	11	...........	-327.56
	11125	11126	1.48743E+000	2.81594E-001	0.00000E+000	1.48900E+000	-1.16055E-004	12	...........	-327.56
	11151	11152	1.51337E+000	3.40570E-001	0.00000E+000	1.51500E+000	-1.10838E-004	12	...........	-327.56
	11177	11178	1.53927E+000	3.92472E-001	0.00000E+000	1.54100E+000	-1.09321E-004	12	...........	-327.56
	11203	11204	1.56520E+000	4.74556E-001	0.00000E+000	1.56700E+000	-1.11288E-004	12	...........	-327.56
	11229	11230	1.59114E+000	5.35937E-001	0.00000E+000	1.59300E+000	-1.09305E-004	12	...........	-327.56
	11255	11256	1.61709E+000	6.06311E-001	0.00000E+000	1.61900E+000	-1.13571E-004	12	...........	-327.56
	11281	11282	1.64304E+000	6.70403E-001	0.00000E+000	1.64500E+000	-1.11238E-004	12	...........	-327.56
	11307	11308	1.66898E+000	7.39697E-001	0.00000E+000	1.67100E+000	-1.14605E-004	12	...........	-327.56
	11333	11334	1.69492E+000	7.92558E-001	0.00000E+000	1.69700E+000	-1.12638E-004	12	...........	-327.56
	11336	11337	1.69790E+000	8.11048E-001	0.00000E+000	1.70000E+000	-1.13505E-004	12	...........	-327.56