Folder: ectools/testing/data (part 2)

File: 240902_01c_MCL13_cswWE_CV20_initial_test.DTA
EXPLAIN
TAG	CV
TITLE	LABEL	Cyclic Voltammetry	Test &Identifier
DATE	LABEL	9/2/2024	Date
TIME	LABEL	15:56:02	Time
NOTES	NOTES	5	&Notes...

	WE: Ag wire
	RE: Ni/NiO
	CE: steel swirl
PSTAT	PSTAT	REF3000-48128	Potentiostat
VINIT	POTEN	0.00000E+000	T	Initial &E (V)
VLIMIT1	POTEN	1.70000E+000	F	Scan Limit &1 (V)
VLIMIT2	POTEN	0.00000E+000	F	Scan Limit &2 (V)
VFINAL	POTEN	0.00000E+000	T	Final &E (V)
SCANRATE	QUANT	2.00000E+001	&Scan Rate (mV/s)
STEPSIZE	QUANT	1.00000E+000	St&ep Size (mV)
CYCLES	IQUANT	0	C&ycles (#)
IMODE	SELECTOR	0	I/E Range &Mode
IRANGE	QUANT	5.00000E+001	&Max Current (mA)
AREA	QUANT	1.00000E+000	Electrode &Area (cm^2)
ELECTRODETYPE	SELECTOR	1	Electrode Type
STRIPPING	TOGGLE	F	Used for Stripping
CONDIT	TWOPARAM	F	1.50000E+001	0.00000E+000	Conditionin&g	Time(s)	E(V)
DELAY	TWOPARAM	T	3.00000E+001	1.00000E+000	Init. De&lay	Time(s)	Stab.(mV/s)
EQDELAY	QUANT	0.00000E+000	Equil. &Time (s)
IRCOMP	SELECTOR	0	IRCom&p
PFCOR	QUANT	5.00000E+001	PF Corr. (ohm)
SAMPLINGMODE	SELECTOR	1	Sampling &Mode
OCVCURVE	TABLE	11
	Pt	T	Vf	Vm	Ach	Over	Temp
	#	s	V vs. Ref.	V	V	bits	deg C
	0	0.25	-3.33749E-002	-3.33749E-002	-9.50755E-004	...........	-327.56
	1	0.5	-3.33826E-002	-3.37790E-002	-9.56021E-004	...........	-327.56
	2	0.75	-3.34399E-002	-3.46782E-002	-9.51821E-004	...........	-327.56
	3	1	-3.36528E-002	-3.64920E-002	-9.55221E-004	...........	-327.56
	4	1.25	-3.40650E-002	-3.23936E-002	-9.49155E-004	...........	-327.56
	5	1.5	-3.44202E-002	-3.35338E-002	-9.57155E-004	...........	-327.56
	6	1.75	-3.44068E-002	-3.47237E-002	-9.56888E-004	...........	-327.56
	7	2	-3.41842E-002	-3.54562E-002	-9.53355E-004	...........	-327.56
	8	2.25	-3.41716E-002	-3.48748E-002	-9.52421E-004	...........	-327.56
	9	2.5	-3.44510E-002	-3.52387E-002	-9.51221E-004	...........	-327.56
	10	2.75	-3.48483E-002	-3.81245E-002	-9.54888E-004	...........	-327.56
EOC	QUANT	-0.0348483	Open Circuit (V)
PSTATMODEL	IQUANT	5	Pstat Model
PSTATSECTION	LABEL	REF3000-48128	Pstat Section
PSTATSERIALNO	LABEL	48128	Pstat Serial Number
CTRLMODE	IQUANT	1	Control Mode
ELECTROMETER	IQUANT	0	RE=0 or CS=1
IESTAB	IQUANT	2	I/E Stability
CASPEED	IQUANT	4	Control Amp Speed
CONVENTION	IQUANT	1	Current Convention
ICHRANGE	IQUANT	2	Ich Range
ICHRANGEMODE	TOGGLE	F	Ich Auto Range
ICHOFFSETENABLE	TOGGLE	F	Ich Offset Enable
ICHOFFSET	QUANT	0	Ich Offset (V)
ICHFILTER	IQUANT	2	Ich Filter
VCHRANGE	IQUANT	3	Vch Range
VCHRANGEMODE	TOGGLE	T	Vch Auto Range
VCHOFFSETENABLE	TOGGLE	F	Vch Offset Enable
VCHOFFSET	QUANT	0	Vch Offset (V)
VCHFILTER	IQUANT	1	Vch Filter
ACHRANGE	IQUANT	2	Ach Range
ACHOFFSETENABLE	TOGGLE	F	Ach Offset Enable
ACHOFFSET	QUANT	0	Ach Offset (V)
ACHFILTER	IQUANT	1	Ach Filter
IERANGELOWERLIMIT	IQUANT	2	I/E Range Lower Limit
IERANGEMODE	TOGGLE	T	I/E AutoRange
IERANGE	IQUANT	11	I/E Range
POSFEEDENABLE	TOGGLE	F	Positive Feedback IR Comp
POSFEEDRESISTANCE	QUANT	0	Positive Feedback Resistance (ohm)
ACHSELECT	IQUANT	1	Ach Select
SENSECABLEID	IQUANT	14	Sense Cable ID
PWRCABLEID	IQUANT	7	Power Cable ID
DCCALDATE	LABEL	8/16/2024	DC Calibration Date
ACCALDATE	LABEL	8/16/2024	AC Calibration Date
THERMOSELECT	IQUANT	1	Thermo Select
FRAMEWORKVERSION	LABEL	7.10.3	Framework Version
INSTRUMENTVERSION	LABEL	4.91	Instrument Version
COMMVERSION	LABEL	5.10	Communications Version
CPUPLDVERSION	LABEL	6.00	CPU PLD Version
CTRLPLDVERSION	LABEL	3.21	CTRL PLD Version
PSTATPLDVERSION	LABEL	0.00	PSTAT PLD Version
COMPLIANCEVOLTAGE	IQUANT	0	Compliance Voltage
EXPERIMENTABORTED	TOGGLE	T	Experiment Aborted
CURVE	TABLE	2578
	Pt	T	Vf	Im	Vu	Sig	Ach	IERange	Over	Cycle	Temp
	#	s	V vs. Ref.	A	V	V	V	#	bits	#	deg C
	0	0.05	-3.33182E-002	5.29245E-004	0.00000E+000	-3.48499E-002	-2.68955E-003	11	...........	0	-327.56
	27	1.4	-7.42649E-003	4.80629E-003	0.00000E+000	-7.84993E-003	-2.67755E-003	10	...........	0	-327.56
	54	2.75	1.95510E-002	4.76795E-003	0.00000E+000	1.91501E-002	-2.68589E-003	10	...........	0	-327.56
	81	4.1	4.64844E-002	4.18011E-003	0.00000E+000	4.61501E-002	-2.67755E-003	10	...........	0	-327.56
	108	5.45	7.34238E-002	7.40948E-003	0.00000E+000	7.31500E-002	-2.67989E-003	10	...........	0	-327.56
	135	6.8	1.00358E-001	1.06438E-002	0.00000E+000	1.00150E-001	-2.67522E-003	10	...........	0	-327.56
	162	8.15	1.27312E-001	1.21450E-002	0.00000E+000	1.27150E-001	-2.68122E-003	10	...........	0	-327.56
	189	9.5	1.54232E-001	1.50181E-002	0.00000E+000	1.54150E-001	-2.68555E-003	10	...........	0	-327.56
	216	10.85	1.81078E-001	2.43560E-002	0.00000E+000	1.81150E-001	-2.67989E-003	10	...........	0	-327.56
	243	12.2	2.08078E-001	2.32430E-002	0.00000E+000	2.08150E-001	-2.67789E-003	10	...........	0	-327.56
	270	13.55	2.35526E-001	3.11799E-002	0.00000E+000	2.35150E-001	-2.68255E-003	11	...........	0	-327.56
	297	14.9	2.62465E-001	4.11779E-002	0.00000E+000	2.62150E-001	-2.67522E-003	11	...........	0	-327.56
	324	16.25	2.89326E-001	4.99750E-002	0.00000E+000	2.89150E-001	-2.68355E-003	11	...........	0	-327.56
	351	17.6	3.16213E-001	5.57677E-002	0.00000E+000	3.16150E-001	-2.67522E-003	11	...........	0	-327.56
	378	18.95	3.43080E-001	7.17499E-002	0.00000E+000	3.43150E-001	-2.67989E-003	11	...........	0	-327.56
	405	20.3	3.69942E-001	8.59636E-002	0.00000E+000	3.70150E-001	-2.68689E-003	11	...........	0	-327.56
	432	21.65	3.96834E-001	1.02736E-001	0.00000E+000	3.97150E-001	-2.67955E-003	11	...........	0	-327.56
	459	23	4.23687E-001	1.16407E-001	0.00000E+000	4.24150E-001	-2.67955E-003	11	...........	0	-327.56
	486	24.35	4.50629E-001	1.38257E-001	0.00000E+000	4.51150E-001	-2.67822E-003	11	...........	0	-327.56
	513	25.7	4.77694E-001	1.16229E-001	0.00000E+000	4.78150E-001	-2.67355E-003	11	...........	0	-327.56
	540	27.05	5.04776E-001	9.27057E-002	0.00000E+000	5.05150E-001	-2.67255E-003	11	...........	0	-327.56
	567	28.4	5.31833E-001	7.57322E-002	0.00000E+000	5.32150E-001	-2.67455E-003	11	...........	0	-327.56
	594	29.75	5.58953E-001	5.73529E-002	0.00000E+000	5.59150E-001	-2.66955E-003	11	...........	0	-327.56
	621	31.1	5.85998E-001	4.91526E-002	0.00000E+000	5.86150E-001	-2.67122E-003	11	...........	0	-327.56
	648	32.45	6.13041E-001	4.50502E-002	0.00000E+000	6.13150E-001	-2.68055E-003	11	...........	0	-327.56
	675	33.8	6.40000E-001	3.90173E-002	0.00000E+000	6.40150E-001	-2.68022E-003	11	...........	0	-327.56
	702	35.15	6.67010E-001	3.86756E-002	0.00000E+000	6.67150E-001	-2.67555E-003	11	...........	0	-327.56
	729	36.5	6.94015E-001	3.28324E-002	0.00000E+000	6.94150E-001	-2.68189E-003	11	...........	0	-327.56
	756	37.85	7.20960E-001	3.27859E-002	0.00000E+000	7.21150E-001	-2.67122E-003	11	...........	0	-327.56
	783	39.2	7.47956E-001	2.95234E-002	0.00000E+000	7.48150E-001	-2.67489E-003	11	...........	0	-327.56
	810	40.55	7.74927E-001	2.80419E-002	0.00000E+000	7.75150E-001	-2.68422E-003	11	...........	0	-327.56
	837	41.9	8.01943E-001	2.74615E-002	0.00000E+000	8.02150E-001	-2.67355E-003	11	...........	0	-327.56
	864	43.25	8.28875E-001	2.70728E-002	0.00000E+000	8.29150E-001	-2.67189E-003	11	...........	0	-327.56
	891	44.6	8.55835E-001	2.75128E-002	0.00000E+000	8.56150E-001	-2.67422E-003	11	...........	0	-327.56
	918	45.95	8.82838E-001	2.89935E-002	0.00000E+000	8.83150E-001	-2.67255E-003	11	...........	0	-327.56
	945	47.3	9.09725E-001	2.76540E-002	0.00000E+000	9.10150E-001	-2.66989E-003	11	...........	0	-327.56
	972	48.65	9.36679E-001	2.88823E-002	0.00000E+000	9.37150E-001	-2.67755E-003	11	...........	0	-327.56
[...]
	1674	83.75	1.63713E+000	7.78871E-001	0.00000E+000	1.63915E+000	-2.67589E-003	12	...........	0	-327.56
	1701	85.1	1.66403E+000	8.41255E-001	0.00000E+000	1.66615E+000	-2.67155E-003	12	...........	0	-327.56
	1728	86.45	1.69099E+000	9.07062E-001	0.00000E+000	1.69315E+000	-2.67922E-003	12	...........	0	-327.56
	1755	87.8	1.67797E+000	8.86845E-001	0.00000E+000	1.68015E+000	-2.67422E-003	12	...........	0	-327.56
	1782	89.15	1.65107E+000	8.32266E-001	0.00000E+000	1.65315E+000	-2.67455E-003	12	...........	0	-327.56
	1809	90.5	1.62418E+000	7.79945E-001	0.00000E+000	1.62615E+000	-2.67189E-003	12	...........	0	-327.56
	1836	91.85	1.59723E+000	7.23763E-001	0.00000E+000	1.59915E+000	-2.66789E-003	12	...........	0	-327.56
	1863	93.2	1.57030E+000	6.68001E-001	0.00000E+000	1.57215E+000	-2.67655E-003	12	...........	0	-327.56
	1890	94.55	1.54336E+000	6.13152E-001	0.00000E+000	1.54515E+000	-2.67555E-003	12	...........	0	-327.56
	1917	95.9	1.51647E+000	5.57037E-001	0.00000E+000	1.51815E+000	-2.67489E-003	12	...........	0	-327.56
	1944	97.25	1.48951E+000	5.03503E-001	0.00000E+000	1.49115E+000	-2.67189E-003	12	...........	0	-327.56
	1971	98.6	1.46258E+000	4.51419E-001	0.00000E+000	1.46415E+000	-2.67055E-003	12	...........	0	-327.56
	1998	99.95	1.43565E+000	4.00424E-001	0.00000E+000	1.43715E+000	-2.67455E-003	12	...........	0	-327.56
	2025	101.3	1.40870E+000	3.52149E-001	0.00000E+000	1.41015E+000	-2.67822E-003	12	...........	0	-327.56
	2052	102.65	1.38175E+000	3.04623E-001	0.00000E+000	1.38315E+000	-2.66922E-003	12	...........	0	-327.56
	2079	104	1.35481E+000	2.58339E-001	0.00000E+000	1.35615E+000	-2.66522E-003	12	...........	0	-327.56
	2106	105.35	1.32765E+000	2.12728E-001	0.00000E+000	1.32915E+000	-2.68155E-003	11	...........	0	-327.56
	2133	106.7	1.30075E+000	1.70630E-001	0.00000E+000	1.30215E+000	-2.67522E-003	11	...........	0	-327.56
	2160	108.05	1.27387E+000	1.33316E-001	0.00000E+000	1.27515E+000	-2.67955E-003	11	...........	0	-327.56
	2187	109.4	1.24699E+000	1.01300E-001	0.00000E+000	1.24815E+000	-2.67522E-003	11	...........	0	-327.56
	2214	110.75	1.22015E+000	7.35979E-002	0.00000E+000	1.22115E+000	-2.68255E-003	11	...........	0	-327.56
	2241	112.1	1.19335E+000	5.10256E-002	0.00000E+000	1.19415E+000	-2.67222E-003	11	...........	0	-327.56
	2268	113.45	1.16649E+000	3.52893E-002	0.00000E+000	1.16715E+000	-2.67055E-003	11	...........	0	-327.56
	2295	114.8	1.13953E+000	2.76270E-002	0.00000E+000	1.14015E+000	-2.67355E-003	11	...........	0	-327.56
	2322	116.15	1.11211E+000	2.27621E-002	0.00000E+000	1.11315E+000	-2.67989E-003	10	...........	0	-327.56
	2349	117.5	1.08517E+000	1.99767E-002	0.00000E+000	1.08615E+000	-2.67155E-003	10	...........	0	-327.56
	2376	118.85	1.05821E+000	1.82152E-002	0.00000E+000	1.05915E+000	-2.66989E-003	10	...........	0	-327.56
	2403	120.2	1.03124E+000	1.75691E-002	0.00000E+000	1.03215E+000	-2.67389E-003	10	...........	0	-327.56
	2430	121.55	1.00426E+000	1.72807E-002	0.00000E+000	1.00515E+000	-2.67855E-003	10	...........	0	-327.56
	2457	122.9	9.77267E-001	1.72394E-002	0.00000E+000	9.78150E-001	-2.67122E-003	10	...........	0	-327.56
	2484	124.25	9.50280E-001	1.76953E-002	0.00000E+000	9.51150E-001	-2.68422E-003	10	...........	0	-327.56
	2511	125.6	9.23312E-001	1.81624E-002	0.00000E+000	9.24150E-001	-2.67755E-003	10	...........	0	-327.56
	2538	126.95	8.96335E-001	1.79713E-002	0.00000E+000	8.97150E-001	-2.67055E-003	10	...........	0	-327.56
	2565	128.3	8.69339E-001	1.85011E-002	0.00000E+000	8.70150E-001	-2.67789E-003	10	...........	0	-327.56
	2577	128.9	8.57401E-001	1.89143E-002	0.00000E+000	8.58150E-001	-2.68089E-003	10	...........	0	-327.56

File: 240902_01d_MCL13_cswWE_CV20_initial_test.DTA
EXPLAIN
TAG	CV
TITLE	LABEL	Cyclic Voltammetry	Test &Identifier
DATE	LABEL	9/2/2024	Date
TIME	LABEL	15:58:31	Time
NOTES	NOTES	5	&Notes...

	WE: Ag wire
	RE: Ni/NiO
	CE: steel swirl
PSTAT	PSTAT	REF3000-48128	Potentiostat
VINIT	POTEN	0.00000E+000	T	Initial &E (V)
VLIMIT1	POTEN	1.70000E+000	F	Scan Limit &1 (V)
VLIMIT2	POTEN	0.00000E+000	F	Scan Limit &2 (V)
VFINAL	POTEN	0.00000E+000	T	Final &E (V)
SCANRATE	QUANT	2.00000E+001	&Scan Rate (mV/s)
STEPSIZE	QUANT	1.00000E+000	St&ep Size (mV)
CYCLES	IQUANT	0	C&ycles (#)
IMODE	SELECTOR	0	I/E Range &Mode
IRANGE	QUANT	5.00000E+001	&Max Current (mA)
AREA	QUANT	1.00000E+000	Electrode &Area (cm^2)
ELECTRODETYPE	SELECTOR	1	Electrode Type
STRIPPING	TOGGLE	F	Used for Stripping
CONDIT	TWOPARAM	F	1.50000E+001	0.00000E+000	Conditionin&g	Time(s)	E(V)
DELAY	TWOPARAM	T	3.00000E+001	1.00000E+000	Init. De&lay	Time(s)	Stab.(mV/s)
EQDELAY	QUANT	0.00000E+000	Equil. &Time (s)
IRCOMP	SELECTOR	0	IRCom&p
PFCOR	QUANT	5.00000E+001	PF Corr. (ohm)
SAMPLINGMODE	SELECTOR	1	Sampling &Mode
OCVCURVE	TABLE	120
	Pt	T	Vf	Vm	Ach	Over	Temp
	#	s	V vs. Ref.	V	V	bits	deg C
	0	0.25	2.61774E-001	2.61774E-001	-9.40555E-004	...........	-327.56
	1	0.5	2.61846E-001	2.65526E-001	-9.34355E-004	...........	-327.56
	2	0.75	2.62161E-001	2.62553E-001	-9.32288E-004	...........	-327.56
	3	1	2.62626E-001	2.59010E-001	-9.45288E-004	...........	-327.56
	4	1.25	2.62586E-001	2.55040E-001	-9.41955E-004	...........	-327.56
	5	1.5	2.61430E-001	2.55399E-001	-9.39155E-004	...........	-327.56
	6	1.75	2.59321E-001	2.51346E-001	-9.47088E-004	...........	-327.56
	7	2	2.56822E-001	2.47009E-001	-9.42088E-004	...........	-327.56
	8	2.25	2.54204E-001	2.48738E-001	-9.37955E-004	...........	-327.56
	9	2.5	2.51662E-001	2.46772E-001	-9.41155E-004	...........	-327.56
	10	2.75	2.49556E-001	2.45381E-001	-9.34821E-004	...........	-327.56
	11	3	2.47752E-001	2.31573E-001	-9.36155E-004	...........	-327.56
	12	3.25	2.45383E-001	2.38543E-001	-9.40888E-004	...........	-327.56
	13	3.5	2.42244E-001	2.39422E-001	-9.46555E-004	...........	-327.56
	14	3.75	2.39447E-001	2.33596E-001	-9.41888E-004	...........	-327.56
	15	4	2.37554E-001	2.25517E-001	-9.45421E-004	...........	-327.56
	16	4.25	2.35453E-001	2.21285E-001	-9.39088E-004	...........	-327.56
	17	4.5	2.32221E-001	2.28649E-001	-9.39555E-004	...........	-327.56
	18	4.75	2.28743E-001	2.24932E-001	-9.46621E-004	...........	-327.56
	19	5	2.26307E-001	2.16895E-001	-9.51155E-004	...........	-327.56
	20	5.25	2.24521E-001	2.13364E-001	-9.41888E-004	...........	-327.56
	21	5.5	2.22020E-001	2.09023E-001	-9.46888E-004	...........	-327.56
	22	5.75	2.18507E-001	2.13164E-001	-9.38421E-004	...........	-327.56
	23	6	2.14961E-001	2.06682E-001	-9.38221E-004	...........	-327.56
	24	6.25	2.12004E-001	1.96226E-001	-9.39888E-004	...........	-327.56
	25	6.5	2.08990E-001	1.99933E-001	-9.45621E-004	...........	-327.56
	26	6.75	2.05416E-001	1.98454E-001	-9.40755E-004	...........	-327.56
	27	7	2.02104E-001	2.00403E-001	-9.48155E-004	...........	-327.56
	28	7.25	2.00035E-001	1.97867E-001	-9.43155E-004	...........	-327.56
	29	7.5	1.99064E-001	1.93238E-001	-9.54955E-004	...........	-327.56
	30	7.75	1.98102E-001	1.86772E-001	-9.47288E-004	...........	-327.56
	31	8	1.96096E-001	1.85850E-001	-9.45688E-004	...........	-327.56
	32	8.25	1.93068E-001	1.89815E-001	-9.44488E-004	...........	-327.56
	33	8.5	1.90172E-001	1.86548E-001	-9.47355E-004	...........	-327.56
	34	8.75	1.88253E-001	1.80283E-001	-9.39821E-004	...........	-327.56
	35	9	1.86869E-001	1.84026E-001	-9.53355E-004	...........	-327.56
	36	9.25	1.85341E-001	1.79950E-001	-9.52755E-004	...........	-327.56
	37	9.5	1.83748E-001	1.81276E-001	-9.54021E-004	...........	-327.56
	38	9.75	1.82449E-001	1.81448E-001	-9.48221E-004	...........	-327.56
	39	10	1.81575E-001	1.78863E-001	-9.53821E-004	...........	-327.56
	40	10.25	1.80796E-001	1.69303E-001	-9.46221E-004	...........	-327.56
	41	10.5	1.79067E-001	1.59459E-001	-9.57688E-004	...........	-327.56
	42	10.75	1.75600E-001	1.72816E-001	-9.49888E-004	...........	-327.56
	43	11	1.71599E-001	1.73350E-001	-9.50688E-004	...........	-327.56
	44	11.25	1.69506E-001	1.76683E-001	-9.40288E-004	...........	-327.56
	45	11.5	1.70087E-001	1.71025E-001	-9.48888E-004	...........	-327.56
	46	11.75	1.71647E-001	1.65045E-001	-9.48821E-004	...........	-327.56
	47	12	1.71877E-001	1.58458E-001	-9.51288E-004	...........	-327.56
	48	12.25	1.69755E-001	1.60105E-001	-9.44355E-004	...........	-327.56
	49	12.5	1.66150E-001	1.60410E-001	-9.49755E-004	...........	-327.56
	50	12.75	1.62792E-001	1.57991E-001	-9.50021E-004	...........	-327.56
	51	13	1.60602E-001	1.57404E-001	-9.50155E-004	...........	-327.56
	52	13.25	1.59318E-001	1.57051E-001	-9.42288E-004	...........	-327.56
	53	13.5	1.58474E-001	1.59504E-001	-9.45221E-004	...........	-327.56
	54	13.75	1.57990E-001	1.56423E-001	-9.44155E-004	...........	-327.56
	55	14	1.57790E-001	1.56300E-001	-9.44288E-004	...........	-327.56
	56	14.25	1.57504E-001	1.53103E-001	-9.41755E-004	...........	-327.56
	57	14.5	1.56770E-001	1.52642E-001	-9.47821E-004	...........	-327.56
	58	14.75	1.55528E-001	1.49518E-001	-9.44355E-004	...........	-327.56
	59	15	1.53889E-001	1.46775E-001	-9.51821E-004	...........	-327.56
	60	15.25	1.51875E-001	1.42403E-001	-9.43888E-004	...........	-327.56
	61	15.5	1.49547E-001	1.47807E-001	-9.53888E-004	...........	-327.56
	62	15.75	1.47240E-001	1.35970E-001	-9.47355E-004	...........	-327.56
	63	16	1.44862E-001	1.27795E-001	-9.51821E-004	...........	-327.56
	64	16.25	1.41598E-001	1.32278E-001	-9.44288E-004	...........	-327.56
	65	16.5	1.37481E-001	1.30944E-001	-9.45955E-004	...........	-327.56
	66	16.75	1.33938E-001	1.33231E-001	-9.49288E-004	...........	-327.56
	67	17	1.32025E-001	1.30064E-001	-9.49488E-004	...........	-327.56
	68	17.25	1.31406E-001	1.30108E-001	-9.53221E-004	...........	-327.56
	69	17.5	1.31073E-001	1.25074E-001	-9.50221E-004	...........	-327.56
	70	17.75	1.30381E-001	1.32402E-001	-9.54155E-004	...........	-327.56
	71	18	1.29618E-001	1.31664E-001	-9.53221E-004	...........	-327.56
	72	18.25	1.29375E-001	1.24333E-001	-9.45221E-004	...........	-327.56
	73	18.5	1.29228E-001	1.21258E-001	-9.54288E-004	...........	-327.56
	74	18.75	1.28067E-001	1.19533E-001	-9.45088E-004	...........	-327.56
	75	19	1.25600E-001	1.14619E-001	-9.50288E-004	...........	-327.56
	76	19.25	1.22392E-001	1.11730E-001	-9.56955E-004	...........	-327.56
	77	19.5	1.18889E-001	1.05772E-001	-9.43421E-004	...........	-327.56
	78	19.75	1.15220E-001	1.06850E-001	-9.46421E-004	...........	-327.56
	79	20	1.11801E-001	1.11877E-001	-9.45488E-004	...........	-327.56
	80	20.25	1.09607E-001	1.13868E-001	-9.50221E-004	...........	-327.56
	81	20.5	1.09346E-001	1.13857E-001	-9.52688E-004	...........	-327.56
	82	20.75	1.10443E-001	1.06828E-001	-9.47688E-004	...........	-327.56
	83	21	1.11373E-001	1.09813E-001	-9.47355E-004	...........	-327.56
	84	21.25	1.11194E-001	1.08051E-001	-9.47221E-004	...........	-327.56
	85	21.5	1.10220E-001	1.06859E-001	-9.58088E-004	...........	-327.56
	86	21.75	1.08980E-001	9.96584E-002	-9.56821E-004	...........	-327.56
	87	22	1.07316E-001	9.93483E-002	-9.54955E-004	...........	-327.56
	88	22.25	1.04910E-001	9.47804E-002	-9.56688E-004	...........	-327.56
	89	22.5	1.01854E-001	8.85097E-002	-9.62421E-004	...........	-327.56
	90	22.75	9.83713E-002	8.96375E-002	-9.59288E-004	...........	-327.56
[...]
	3365	168.3	1.38652E-002	-1.17662E-002	0.00000E+000	1.32501E-002	-2.67789E-003	10	...........	-327.56
	3366	168.35	1.48611E-002	-1.15615E-002	0.00000E+000	1.42500E-002	-2.67389E-003	10	...........	-327.56
	3367	168.4	1.58528E-002	-1.12392E-002	0.00000E+000	1.52500E-002	-2.68055E-003	10	...........	-327.56
	3368	168.45	1.68534E-002	-1.10440E-002	0.00000E+000	1.62501E-002	-2.67955E-003	10	...........	-327.56
	3369	168.5	1.78516E-002	-1.08053E-002	0.00000E+000	1.72501E-002	-2.68522E-003	10	...........	-327.56
	3370	168.55	1.88535E-002	-1.05780E-002	0.00000E+000	1.82500E-002	-2.68355E-003	10	...........	-327.56
	3371	168.6	1.98469E-002	-1.03470E-002	0.00000E+000	1.92500E-002	-2.68322E-003	10	...........	-327.56
	3372	168.65	2.08366E-002	-9.80002E-003	0.00000E+000	2.02500E-002	-2.68322E-003	10	...........	-327.56
	3373	168.7	2.18326E-002	-9.56460E-003	0.00000E+000	2.12501E-002	-2.66822E-003	10	...........	-327.56
	3374	168.75	2.28306E-002	-9.43997E-003	0.00000E+000	2.22501E-002	-2.68389E-003	10	...........	-327.56
	3375	168.8	2.38220E-002	-9.21959E-003	0.00000E+000	2.32500E-002	-2.67322E-003	10	...........	-327.56
	3376	168.85	2.48184E-002	-8.99597E-003	0.00000E+000	2.42500E-002	-2.67789E-003	10	...........	-327.56
	3377	168.9	2.58144E-002	-8.94389E-003	0.00000E+000	2.52500E-002	-2.67355E-003	10	...........	-327.56
	3378	168.95	2.68126E-002	-8.91426E-003	0.00000E+000	2.62501E-002	-2.66889E-003	10	...........	-327.56
	3379	169	2.77911E-002	-8.60996E-003	0.00000E+000	2.72501E-002	-2.67722E-003	10	...........	-327.56
	3380	169.05	2.87927E-002	-8.44594E-003	0.00000E+000	2.82500E-002	-2.67389E-003	10	...........	-327.56
	3381	169.1	2.97877E-002	-8.33295E-003	0.00000E+000	2.92500E-002	-2.67222E-003	10	...........	-327.56
	3382	169.15	3.07836E-002	-8.36241E-003	0.00000E+000	3.02501E-002	-2.68222E-003	10	...........	-327.56
	3383	169.2	3.17778E-002	-8.25803E-003	0.00000E+000	3.12501E-002	-2.68022E-003	10	...........	-327.56
	3384	169.25	3.27715E-002	-8.08501E-003	0.00000E+000	3.22500E-002	-2.67155E-003	10	...........	-327.56
	3385	169.3	3.37591E-002	-7.73875E-003	0.00000E+000	3.32500E-002	-2.67222E-003	10	...........	-327.56
	3386	169.35	3.47560E-002	-7.53845E-003	0.00000E+000	3.42500E-002	-2.67955E-003	10	...........	-327.56
	3387	169.4	3.57580E-002	-7.72611E-003	0.00000E+000	3.52501E-002	-2.67789E-003	10	...........	-327.56
	3388	169.45	3.67643E-002	-7.60070E-003	0.00000E+000	3.62501E-002	-2.66722E-003	10	...........	-327.56
	3389	169.5	3.77511E-002	-7.35076E-003	0.00000E+000	3.72500E-002	-2.67922E-003	10	...........	-327.56
	3390	169.55	3.87556E-002	-7.22213E-003	0.00000E+000	3.82500E-002	-2.68455E-003	10	...........	-327.56
	3391	169.6	3.97457E-002	-6.93257E-003	0.00000E+000	3.92500E-002	-2.68455E-003	10	...........	-327.56
	3392	169.65	4.07310E-002	-6.74691E-003	0.00000E+000	4.02501E-002	-2.67555E-003	10	...........	-327.56
	3393	169.7	4.17331E-002	-6.64474E-003	0.00000E+000	4.12501E-002	-2.67455E-003	10	...........	-327.56
	3394	169.75	4.27232E-002	-6.13201E-003	0.00000E+000	4.22500E-002	-2.68155E-003	10	...........	-327.56
	3395	169.8	4.37264E-002	-5.94577E-003	0.00000E+000	4.32500E-002	-2.67622E-003	10	...........	-327.56
	3396	169.85	4.47320E-002	-5.81780E-003	0.00000E+000	4.42501E-002	-2.67255E-003	10	...........	-327.56
	3397	169.9	4.57317E-002	-5.91839E-003	0.00000E+000	4.52501E-002	-2.68089E-003	10	...........	-327.56
	3398	169.95	4.67308E-002	-5.93883E-003	0.00000E+000	4.62500E-002	-2.67022E-003	10	...........	-327.56
	3399	170	4.77153E-002	-5.73891E-003	0.00000E+000	4.72500E-002	-2.66922E-003	10	...........	-327.56