Folder: ectools/testing/data (part 7)

File: 240902_11_MCL13_cswWE_CV2_750C_CO2.DTA
EXPLAIN
TAG	CV
TITLE	LABEL	Cyclic Voltammetry	Test Identifier
DATE	LABEL	9/3/2024	Date
TIME	LABEL	5:24:42	Time
NOTES	NOTES	5	Notes...
	cswWE - carbon steel wire
cspWE - carbon steel plate 2x2 tapered

Carbon steel plate counter electrode
Carbon steel wire reference electrode
PSTAT	PSTAT	REF3000-48128	Potentiostat
VINIT	POTEN	0.00000E+000	T	Initial E (V)
VLIMIT1	POTEN	1.70000E+000	F	Scan Limit 1 (V)
VLIMIT2	POTEN	-5.00000E-001	F	Scan Limit 2 (V)
VFINAL	POTEN	1.70000E+000	F	Final E (V)
SCANRATE	QUANT	2.00000E+000	Scan Rate (mV/s)
STEPSIZE	QUANT	1.00000E+000	Step Size (mV)
CYCLES	IQUANT	2	Cycles (#)
IMODE	SELECTOR	0	I/E Range Mode
IRANGE	QUANT	3.00000E-001	Max Current (mA)
AREA	QUANT	1.00000E+000	Sample Area (cm^2)
EQDELAY	QUANT	0.00000E+000	Equil. Time (s)
IRCOMP	SELECTOR	0	IRComp
PFCOR	QUANT	5.00000E+001	PF Corr. (ohm)
SAMPLINGMODE	SELECTOR	1	Sampling Mode
EOC	QUANT	0.2661975	Open Circuit (V)
ELECTRODETYPE	SELECTOR	0	Electrode Type
STRIPPING	TOGGLE	F	Used for Stripping
SEQUENCER	TOGGLE	TRUE	Run as Sequence
PSTATMODEL	IQUANT	5	Pstat Model
PSTATSECTION	LABEL	REF3000-48128	Pstat Section
PSTATSERIALNO	LABEL	48128	Pstat Serial Number
CTRLMODE	IQUANT	1	Control Mode
ELECTROMETER	IQUANT	0	RE=0 or CS=1
IESTAB	IQUANT	2	I/E Stability
CASPEED	IQUANT	4	Control Amp Speed
CONVENTION	IQUANT	1	Current Convention
ICHRANGE	IQUANT	2	Ich Range
ICHRANGEMODE	TOGGLE	F	Ich Auto Range
ICHOFFSETENABLE	TOGGLE	F	Ich Offset Enable
ICHOFFSET	QUANT	0	Ich Offset (V)
ICHFILTER	IQUANT	3	Ich Filter
VCHRANGE	IQUANT	2	Vch Range
VCHRANGEMODE	TOGGLE	F	Vch Auto Range
VCHOFFSETENABLE	TOGGLE	F	Vch Offset Enable
VCHOFFSET	QUANT	0	Vch Offset (V)
VCHFILTER	IQUANT	3	Vch Filter
ACHRANGE	IQUANT	2	Ach Range
ACHOFFSETENABLE	TOGGLE	F	Ach Offset Enable
ACHOFFSET	QUANT	0	Ach Offset (V)
ACHFILTER	IQUANT	1	Ach Filter
IERANGELOWERLIMIT	IQUANT	2	I/E Range Lower Limit
IERANGEMODE	TOGGLE	T	I/E AutoRange
IERANGE	IQUANT	9	I/E Range
POSFEEDENABLE	TOGGLE	F	Positive Feedback IR Comp
POSFEEDRESISTANCE	QUANT	0	Positive Feedback Resistance (ohm)
ACHSELECT	IQUANT	4	Ach Select
SENSECABLEID	IQUANT	14	Sense Cable ID
PWRCABLEID	IQUANT	7	Power Cable ID
DCCALDATE	LABEL	8/16/2024	DC Calibration Date
ACCALDATE	LABEL	8/16/2024	AC Calibration Date
THERMOSELECT	IQUANT	1	Thermo Select
FRAMEWORKVERSION	LABEL	7.10.3	Framework Version
INSTRUMENTVERSION	LABEL	4.91	Instrument Version
COMMVERSION	LABEL	5.10	Communications Version
CPUPLDVERSION	LABEL	6.00	CPU PLD Version
CTRLPLDVERSION	LABEL	3.21	CTRL PLD Version
PSTATPLDVERSION	LABEL	0.00	PSTAT PLD Version
COMPLIANCEVOLTAGE	IQUANT	0	Compliance Voltage
CURVE1	TABLE
	Pt	T	Vf	Im	Vu	Sig	Ach	IERange	Over	Temp
	#	s	V vs. Ref.	A	V	V	V	#	bits	deg C
	0	0.5	2.65709E-001	1.28877E-003	0.00000E+000	2.66200E-001	-9.76548E-005	9	...........	-327.56
	37	19	3.02679E-001	9.36579E-003	0.00000E+000	3.03200E-001	-1.01655E-004	10	...........	-327.56
	74	37.5	3.39632E-001	1.13062E-002	0.00000E+000	3.40200E-001	-1.06121E-004	10	...........	-327.56
	111	56	3.76543E-001	1.21863E-002	0.00000E+000	3.77200E-001	-1.05188E-004	10	...........	-327.56
	148	74.5	4.13562E-001	1.29327E-002	0.00000E+000	4.14200E-001	-1.05288E-004	10	...........	-327.56
	185	93	4.50453E-001	1.32818E-002	0.00000E+000	4.51200E-001	-1.07255E-004	10	...........	-327.56
	222	111.5	4.87487E-001	1.36628E-002	0.00000E+000	4.88200E-001	-1.06555E-004	10	...........	-327.56
	259	130	5.24442E-001	1.41400E-002	0.00000E+000	5.25200E-001	-1.06488E-004	10	...........	-327.56
	296	148.5	5.61419E-001	1.46985E-002	0.00000E+000	5.62200E-001	-1.04188E-004	10	...........	-327.56
	333	167	5.98370E-001	1.51176E-002	0.00000E+000	5.99200E-001	-1.06088E-004	10	...........	-327.56
	370	185.5	6.35301E-001	1.51231E-002	0.00000E+000	6.36200E-001	-1.08188E-004	10	...........	-327.56
	407	204	6.72317E-001	1.49459E-002	0.00000E+000	6.73200E-001	-1.03488E-004	10	...........	-327.56
	444	222.5	7.09238E-001	1.44688E-002	0.00000E+000	7.10200E-001	-1.05988E-004	10	...........	-327.56
	481	241	7.46246E-001	1.38695E-002	0.00000E+000	7.47200E-001	-1.03755E-004	10	...........	-327.56
	518	259.5	7.83158E-001	1.32936E-002	0.00000E+000	7.84200E-001	-1.04388E-004	10	...........	-327.56
	555	278	8.20139E-001	1.28219E-002	0.00000E+000	8.21200E-001	-1.05121E-004	10	...........	-327.56
	592	296.5	8.57145E-001	1.27505E-002	0.00000E+000	8.58200E-001	-1.05521E-004	10	...........	-327.56
	629	315	8.94062E-001	1.31110E-002	0.00000E+000	8.95200E-001	-1.08988E-004	10	...........	-327.56
	666	333.5	9.31068E-001	1.44267E-002	0.00000E+000	9.32200E-001	-1.03121E-004	10	...........	-327.56
	703	352	9.67947E-001	1.76307E-002	0.00000E+000	9.69200E-001	-1.08455E-004	10	...........	-327.56
	740	370.5	1.00486E+000	2.34012E-002	0.00000E+000	1.00620E+000	-1.06388E-004	10	...........	-327.56
	777	389	1.04203E+000	3.16819E-002	0.00000E+000	1.04320E+000	-1.05155E-004	11	...........	-327.56
	814	407.5	1.07904E+000	3.97121E-002	0.00000E+000	1.08020E+000	-1.01855E-004	11	...........	-327.56
	851	426	1.11595E+000	4.40791E-002	0.00000E+000	1.11720E+000	-1.08121E-004	11	...........	-327.56
	888	444.5	1.15292E+000	4.99266E-002	0.00000E+000	1.15420E+000	-1.08055E-004	11	...........	-327.56
	925	463	1.18987E+000	6.57826E-002	0.00000E+000	1.19120E+000	-1.00155E-004	11	...........	-327.56
	962	481.5	1.22677E+000	8.90285E-002	0.00000E+000	1.22820E+000	-1.04288E-004	11	...........	-327.56
	999	500	1.26377E+000	1.20993E-001	0.00000E+000	1.26520E+000	-1.05988E-004	11	...........	-327.56
	1036	518.5	1.30066E+000	1.69981E-001	0.00000E+000	1.30220E+000	-1.05255E-004	11	...........	-327.56
	1073	537	1.33751E+000	2.33836E-001	0.00000E+000	1.33920E+000	-1.00888E-004	11	...........	-327.56
	1110	555.5	1.37462E+000	3.13858E-001	0.00000E+000	1.37620E+000	-1.06221E-004	12	...........	-327.56
	1147	574	1.41158E+000	3.86697E-001	0.00000E+000	1.41320E+000	-1.06188E-004	12	...........	-327.56
	1184	592.5	1.44841E+000	4.59299E-001	0.00000E+000	1.45020E+000	-1.06588E-004	12	...........	-327.56
	1221	611	1.48540E+000	5.34256E-001	0.00000E+000	1.48720E+000	-1.02755E-004	12	...........	-327.56
	1258	629.5	1.52234E+000	6.14603E-001	0.00000E+000	1.52420E+000	-1.07121E-004	12	...........	-327.56
	1295	648	1.55916E+000	7.12140E-001	0.00000E+000	1.56120E+000	-1.06655E-004	12	...........	-327.56
	1332	666.5	1.59615E+000	7.96332E-001	0.00000E+000	1.59820E+000	-1.09121E-004	12	...........	-327.56
	1369	685	1.63303E+000	8.89858E-001	0.00000E+000	1.63520E+000	-1.07821E-004	12	...........	-327.56
	1406	703.5	1.66997E+000	9.71416E-001	0.00000E+000	1.67220E+000	-1.05288E-004	12	...........	-327.56
	1443	722	1.68890E+000	1.02303E+000	0.00000E+000	1.69120E+000	-1.08721E-004	12	...........	-327.56
	1480	740.5	1.65191E+000	9.51924E-001	0.00000E+000	1.65420E+000	-1.04521E-004	12	...........	-327.56
	1517	759	1.61507E+000	8.78825E-001	0.00000E+000	1.61720E+000	-1.03855E-004	12	...........	-327.56
	1554	777.5	1.57810E+000	7.98186E-001	0.00000E+000	1.58020E+000	-1.05688E-004	12	...........	-327.56
	1591	796	1.54122E+000	7.14341E-001	0.00000E+000	1.54320E+000	-1.07221E-004	12	...........	-327.56
	1628	814.5	1.50430E+000	6.39399E-001	0.00000E+000	1.50620E+000	-1.04088E-004	12	...........	-327.56
	1665	833	1.46744E+000	5.53134E-001	0.00000E+000	1.46920E+000	-1.07688E-004	12	...........	-327.56
	1702	851.5	1.43046E+000	4.73871E-001	0.00000E+000	1.43220E+000	-1.05021E-004	12	...........	-327.56
[...]
	9438	4719.5	9.02811E-001	2.26150E-002	0.00000E+000	9.04000E-001	-1.05888E-004	10	...........	-327.56
	9461	4731	9.25748E-001	2.17683E-002	0.00000E+000	9.27000E-001	-1.10555E-004	10	...........	-327.56
	9484	4742.5	9.48750E-001	2.11156E-002	0.00000E+000	9.50000E-001	-1.06521E-004	10	...........	-327.56
	9507	4754	9.71693E-001	2.10031E-002	0.00000E+000	9.73000E-001	-1.06555E-004	10	...........	-327.56
	9530	4765.5	9.94656E-001	2.18821E-002	0.00000E+000	9.96000E-001	-1.05221E-004	10	...........	-327.56
	9553	4777	1.01758E+000	2.42762E-002	0.00000E+000	1.01900E+000	-1.05321E-004	10	...........	-327.56
	9576	4788.5	1.04082E+000	2.86837E-002	0.00000E+000	1.04200E+000	-1.08421E-004	11	...........	-327.56
	9599	4800	1.06389E+000	3.52844E-002	0.00000E+000	1.06500E+000	-1.11888E-004	11	...........	-327.56
	9622	4811.5	1.08685E+000	4.39006E-002	0.00000E+000	1.08800E+000	-1.10821E-004	11	...........	-327.56
	9645	4823	1.10982E+000	5.43609E-002	0.00000E+000	1.11100E+000	-1.13288E-004	11	...........	-327.56
	9668	4834.5	1.13273E+000	6.66585E-002	0.00000E+000	1.13400E+000	-1.10355E-004	11	...........	-327.56
	9691	4846	1.15568E+000	8.08375E-002	0.00000E+000	1.15700E+000	-1.08855E-004	11	...........	-327.56
	9714	4857.5	1.17865E+000	9.62647E-002	0.00000E+000	1.18000E+000	-1.13121E-004	11	...........	-327.56
	9737	4869	1.20158E+000	1.14292E-001	0.00000E+000	1.20300E+000	-1.13221E-004	11	...........	-327.56
	9760	4880.5	1.22452E+000	1.36595E-001	0.00000E+000	1.22600E+000	-1.07988E-004	11	...........	-327.56
	9783	4892	1.24745E+000	1.65334E-001	0.00000E+000	1.24900E+000	-1.07855E-004	11	...........	-327.56
	9806	4903.5	1.27036E+000	2.02761E-001	0.00000E+000	1.27200E+000	-1.10821E-004	11	...........	-327.56
	9829	4915	1.29325E+000	2.48243E-001	0.00000E+000	1.29500E+000	-1.08688E-004	11	...........	-327.56
	9852	4926.5	1.31659E+000	3.00598E-001	0.00000E+000	1.31800E+000	-1.10555E-004	12	...........	-327.56
	9875	4938	1.33948E+000	3.56055E-001	0.00000E+000	1.34100E+000	-1.10355E-004	12	...........	-327.56
	9898	4949.5	1.36241E+000	4.15516E-001	0.00000E+000	1.36400E+000	-1.11488E-004	12	...........	-327.56
	9921	4961	1.38536E+000	4.78339E-001	0.00000E+000	1.38700E+000	-1.05521E-004	12	...........	-327.56
	9944	4972.5	1.40828E+000	5.40131E-001	0.00000E+000	1.41000E+000	-1.09755E-004	12	...........	-327.56
	9967	4984	1.43119E+000	6.01374E-001	0.00000E+000	1.43300E+000	-1.08621E-004	12	...........	-327.56
	9990	4995.5	1.45412E+000	6.60470E-001	0.00000E+000	1.45600E+000	-1.13755E-004	12	...........	-327.56
	10013	5007	1.47705E+000	7.24690E-001	0.00000E+000	1.47900E+000	-1.12055E-004	12	...........	-327.56
	10036	5018.5	1.49997E+000	7.85457E-001	0.00000E+000	1.50200E+000	-1.12188E-004	12	...........	-327.56
	10059	5030	1.52301E+000	8.39900E-001	0.00000E+000	1.52500E+000	-1.06421E-004	12	...........	-327.56
	10082	5041.5	1.54593E+000	8.90755E-001	0.00000E+000	1.54800E+000	-1.09055E-004	12	...........	-327.56
	10105	5053	1.56888E+000	9.42467E-001	0.00000E+000	1.57100E+000	-1.14188E-004	12	...........	-327.56
	10128	5064.5	1.59185E+000	9.96708E-001	0.00000E+000	1.59400E+000	-1.10055E-004	12	...........	-327.56
	10151	5076	1.61479E+000	1.04520E+000	0.00000E+000	1.61700E+000	-1.11588E-004	12	...........	-327.56
	10174	5087.5	1.63772E+000	1.08876E+000	0.00000E+000	1.64000E+000	-1.13421E-004	12	...........	-327.56
	10197	5099	1.66069E+000	1.13943E+000	0.00000E+000	1.66300E+000	-1.08355E-004	12	...........	-327.56
	10220	5110.5	1.68361E+000	1.17806E+000	0.00000E+000	1.68600E+000	-1.06555E-004	12	...........	-327.56
	10234	5117.5	1.69763E+000	1.20990E+000	0.00000E+000	1.70000E+000	-1.09255E-004	12	...........	-327.56

File: 240902_12_MCL13_cswWE_CV2_750C_CO2.DTA
EXPLAIN
TAG	CV
TITLE	LABEL	Cyclic Voltammetry	Test Identifier
DATE	LABEL	9/3/2024	Date
TIME	LABEL	6:51:01	Time
NOTES	NOTES	5	Notes...
	cswWE - carbon steel wire
cspWE - carbon steel plate 2x2 tapered

Carbon steel plate counter electrode
Carbon steel wire reference electrode
PSTAT	PSTAT	REF3000-48128	Potentiostat
VINIT	POTEN	0.00000E+000	T	Initial E (V)
VLIMIT1	POTEN	1.70000E+000	F	Scan Limit 1 (V)
VLIMIT2	POTEN	-3.00000E-001	F	Scan Limit 2 (V)
VFINAL	POTEN	1.70000E+000	F	Final E (V)
SCANRATE	QUANT	2.00000E+000	Scan Rate (mV/s)
STEPSIZE	QUANT	1.00000E+000	Step Size (mV)
CYCLES	IQUANT	2	Cycles (#)
IMODE	SELECTOR	0	I/E Range Mode
IRANGE	QUANT	3.00000E-001	Max Current (mA)
AREA	QUANT	1.00000E+000	Sample Area (cm^2)
EQDELAY	QUANT	0.00000E+000	Equil. Time (s)
IRCOMP	SELECTOR	0	IRComp
PFCOR	QUANT	5.00000E+001	PF Corr. (ohm)
SAMPLINGMODE	SELECTOR	1	Sampling Mode
EOC	QUANT	0.5099545	Open Circuit (V)
ELECTRODETYPE	SELECTOR	0	Electrode Type
STRIPPING	TOGGLE	F	Used for Stripping
SEQUENCER	TOGGLE	TRUE	Run as Sequence
PSTATMODEL	IQUANT	5	Pstat Model
PSTATSECTION	LABEL	REF3000-48128	Pstat Section
PSTATSERIALNO	LABEL	48128	Pstat Serial Number
CTRLMODE	IQUANT	1	Control Mode
ELECTROMETER	IQUANT	0	RE=0 or CS=1
IESTAB	IQUANT	2	I/E Stability
CASPEED	IQUANT	4	Control Amp Speed
CONVENTION	IQUANT	1	Current Convention
ICHRANGE	IQUANT	2	Ich Range
ICHRANGEMODE	TOGGLE	F	Ich Auto Range
ICHOFFSETENABLE	TOGGLE	F	Ich Offset Enable
ICHOFFSET	QUANT	0	Ich Offset (V)
ICHFILTER	IQUANT	3	Ich Filter
VCHRANGE	IQUANT	2	Vch Range
VCHRANGEMODE	TOGGLE	F	Vch Auto Range
VCHOFFSETENABLE	TOGGLE	F	Vch Offset Enable
VCHOFFSET	QUANT	0	Vch Offset (V)
VCHFILTER	IQUANT	3	Vch Filter
ACHRANGE	IQUANT	2	Ach Range
ACHOFFSETENABLE	TOGGLE	F	Ach Offset Enable
ACHOFFSET	QUANT	0	Ach Offset (V)
ACHFILTER	IQUANT	1	Ach Filter
IERANGELOWERLIMIT	IQUANT	2	I/E Range Lower Limit
IERANGEMODE	TOGGLE	T	I/E AutoRange
IERANGE	IQUANT	9	I/E Range
POSFEEDENABLE	TOGGLE	F	Positive Feedback IR Comp
POSFEEDRESISTANCE	QUANT	0	Positive Feedback Resistance (ohm)
ACHSELECT	IQUANT	4	Ach Select
SENSECABLEID	IQUANT	14	Sense Cable ID
PWRCABLEID	IQUANT	7	Power Cable ID
DCCALDATE	LABEL	8/16/2024	DC Calibration Date
ACCALDATE	LABEL	8/16/2024	AC Calibration Date
THERMOSELECT	IQUANT	1	Thermo Select
FRAMEWORKVERSION	LABEL	7.10.3	Framework Version
INSTRUMENTVERSION	LABEL	4.91	Instrument Version
COMMVERSION	LABEL	5.10	Communications Version
CPUPLDVERSION	LABEL	6.00	CPU PLD Version
CTRLPLDVERSION	LABEL	3.21	CTRL PLD Version
PSTATPLDVERSION	LABEL	0.00	PSTAT PLD Version
COMPLIANCEVOLTAGE	IQUANT	0	Compliance Voltage
CURVE1	TABLE
	Pt	T	Vf	Im	Vu	Sig	Ach	IERange	Over	Temp
	#	s	V vs. Ref.	A	V	V	V	#	bits	deg C
	0	0.5	5.09354E-001	4.72247E-004	0.00000E+000	5.09950E-001	-1.08721E-004	9	...........	-327.56
	33	17	5.42328E-001	5.56866E-003	0.00000E+000	5.42950E-001	-1.09688E-004	10	...........	-327.56
	66	33.5	5.75274E-001	7.52920E-003	0.00000E+000	5.75950E-001	-1.23288E-004	10	...........	-327.56
	99	50	6.08195E-001	8.44628E-003	0.00000E+000	6.08950E-001	-1.20521E-004	10	...........	-327.56
	132	66.5	6.41175E-001	8.72641E-003	0.00000E+000	6.41950E-001	-1.16088E-004	10	...........	-327.56
	165	83	6.74200E-001	8.74282E-003	0.00000E+000	6.74950E-001	-1.17188E-004	10	...........	-327.56
	198	99.5	7.07134E-001	8.61998E-003	0.00000E+000	7.07950E-001	-1.17755E-004	10	...........	-327.56
	231	116	7.40048E-001	8.26818E-003	0.00000E+000	7.40950E-001	-1.16321E-004	10	...........	-327.56
	264	132.5	7.73102E-001	7.93708E-003	0.00000E+000	7.73950E-001	-1.17555E-004	10	...........	-327.56
	297	149	8.06054E-001	7.60218E-003	0.00000E+000	8.06950E-001	-1.15388E-004	10	...........	-327.56
	330	165.5	8.38963E-001	7.36844E-003	0.00000E+000	8.39950E-001	-1.14155E-004	10	...........	-327.56
	363	182	8.71965E-001	7.88217E-003	0.00000E+000	8.72950E-001	-1.15688E-004	10	...........	-327.56
	396	198.5	9.04991E-001	7.51212E-003	0.00000E+000	9.05950E-001	-1.18521E-004	10	...........	-327.56
	429	215	9.37834E-001	8.36050E-003	0.00000E+000	9.38950E-001	-1.09955E-004	10	...........	-327.56
	462	231.5	9.70801E-001	1.09693E-002	0.00000E+000	9.71950E-001	-1.18221E-004	10	...........	-327.56
	495	248	1.00376E+000	1.60510E-002	0.00000E+000	1.00495E+000	-1.15155E-004	10	...........	-327.56
	528	264.5	1.03661E+000	2.37398E-002	0.00000E+000	1.03795E+000	-1.12621E-004	10	...........	-327.56
	561	281	1.06981E+000	3.37358E-002	0.00000E+000	1.07095E+000	-1.16321E-004	11	...........	-327.56
	594	297.5	1.10279E+000	4.61851E-002	0.00000E+000	1.10395E+000	-1.15021E-004	11	...........	-327.56
	627	314	1.13572E+000	6.15645E-002	0.00000E+000	1.13695E+000	-1.13588E-004	11	...........	-327.56
	660	330.5	1.16862E+000	7.96346E-002	0.00000E+000	1.16995E+000	-1.15788E-004	11	...........	-327.56
	693	347	1.20155E+000	1.03585E-001	0.00000E+000	1.20295E+000	-1.16255E-004	11	...........	-327.56
	726	363.5	1.23456E+000	1.36255E-001	0.00000E+000	1.23595E+000	-1.18688E-004	11	...........	-327.56
	759	380	1.26737E+000	1.80300E-001	0.00000E+000	1.26895E+000	-1.13655E-004	11	...........	-327.56
	792	396.5	1.30029E+000	2.35575E-001	0.00000E+000	1.30195E+000	-1.11988E-004	11	...........	-327.56
	825	413	1.33347E+000	3.00534E-001	0.00000E+000	1.33495E+000	-1.14688E-004	12	...........	-327.56
	858	429.5	1.36643E+000	3.69927E-001	0.00000E+000	1.36795E+000	-1.15588E-004	12	...........	-327.56
	891	446	1.39929E+000	4.46775E-001	0.00000E+000	1.40095E+000	-1.18288E-004	12	...........	-327.56
	924	462.5	1.43223E+000	5.30506E-001	0.00000E+000	1.43395E+000	-1.13821E-004	12	...........	-327.56
	957	479	1.46517E+000	6.18875E-001	0.00000E+000	1.46695E+000	-1.16755E-004	12	...........	-327.56
	990	495.5	1.49800E+000	7.07853E-001	0.00000E+000	1.49995E+000	-1.18521E-004	12	...........	-327.56
	1023	512	1.53103E+000	7.92370E-001	0.00000E+000	1.53295E+000	-1.15721E-004	12	...........	-327.56
	1056	528.5	1.56390E+000	8.73807E-001	0.00000E+000	1.56595E+000	-1.13488E-004	12	...........	-327.56
	1089	545	1.59684E+000	9.51681E-001	0.00000E+000	1.59895E+000	-1.14655E-004	12	...........	-327.56
	1122	561.5	1.62971E+000	1.02784E+000	0.00000E+000	1.63195E+000	-1.13355E-004	12	...........	-327.56
	1155	578	1.66265E+000	1.09366E+000	0.00000E+000	1.66495E+000	-1.12421E-004	12	...........	-327.56
	1188	594.5	1.69563E+000	1.16272E+000	0.00000E+000	1.69795E+000	-1.16755E-004	12	...........	-327.56
	1221	611	1.66668E+000	1.10242E+000	0.00000E+000	1.66895E+000	-1.14588E-004	12	...........	-327.56
	1254	627.5	1.63374E+000	1.02817E+000	0.00000E+000	1.63595E+000	-1.20121E-004	12	...........	-327.56
	1287	644	1.60073E+000	9.63945E-001	0.00000E+000	1.60295E+000	-1.15988E-004	12	...........	-327.56
	1320	660.5	1.56791E+000	8.93852E-001	0.00000E+000	1.56995E+000	-1.16988E-004	12	...........	-327.56
	1353	677	1.53494E+000	8.28001E-001	0.00000E+000	1.53695E+000	-1.16355E-004	12	...........	-327.56
	1386	693.5	1.50199E+000	7.60542E-001	0.00000E+000	1.50395E+000	-1.14555E-004	12	...........	-327.56
	1419	710	1.46914E+000	6.92704E-001	0.00000E+000	1.47095E+000	-1.16421E-004	12	...........	-327.56
	1452	726.5	1.43618E+000	6.23237E-001	0.00000E+000	1.43795E+000	-1.17855E-004	12	...........	-327.56
	1485	743	1.40319E+000	5.53878E-001	0.00000E+000	1.40495E+000	-1.19321E-004	12	...........	-327.56
	1518	759.5	1.37024E+000	4.87935E-001	0.00000E+000	1.37195E+000	-1.15488E-004	12	...........	-327.56
[...]
	8472	4236.5	9.80897E-001	1.16163E-002	0.00000E+000	9.82000E-001	-1.19855E-004	10	...........	-327.56
	8493	4247	1.00183E+000	1.39913E-002	0.00000E+000	1.00300E+000	-1.19288E-004	10	...........	-327.56
	8514	4257.5	1.02272E+000	1.83131E-002	0.00000E+000	1.02400E+000	-1.17321E-004	10	...........	-327.56
	8535	4268	1.04360E+000	2.47043E-002	0.00000E+000	1.04500E+000	-1.13755E-004	10	...........	-327.56
	8556	4278.5	1.06484E+000	3.30921E-002	0.00000E+000	1.06600E+000	-1.19288E-004	11	...........	-327.56
	8577	4289	1.08587E+000	4.29967E-002	0.00000E+000	1.08700E+000	-1.20421E-004	11	...........	-327.56
	8598	4299.5	1.10684E+000	5.45841E-002	0.00000E+000	1.10800E+000	-1.17721E-004	11	...........	-327.56
	8619	4310	1.12778E+000	6.81965E-002	0.00000E+000	1.12900E+000	-1.19188E-004	11	...........	-327.56
	8640	4320.5	1.14873E+000	8.30703E-002	0.00000E+000	1.15000E+000	-1.19888E-004	11	...........	-327.56
	8661	4331	1.16960E+000	1.00617E-001	0.00000E+000	1.17100E+000	-1.18688E-004	11	...........	-327.56
	8682	4341.5	1.19058E+000	1.21200E-001	0.00000E+000	1.19200E+000	-1.19421E-004	11	...........	-327.56
	8703	4352	1.21160E+000	1.45639E-001	0.00000E+000	1.21300E+000	-1.19821E-004	11	...........	-327.56
	8724	4362.5	1.23254E+000	1.74910E-001	0.00000E+000	1.23400E+000	-1.17321E-004	11	...........	-327.56
	8745	4373	1.25343E+000	2.08630E-001	0.00000E+000	1.25500E+000	-1.15188E-004	11	...........	-327.56
	8766	4383.5	1.27431E+000	2.48607E-001	0.00000E+000	1.27600E+000	-1.10921E-004	11	...........	-327.56
	8787	4394	1.29553E+000	2.93316E-001	0.00000E+000	1.29700E+000	-1.17355E-004	12	...........	-327.56
	8808	4404.5	1.31657E+000	3.45108E-001	0.00000E+000	1.31800E+000	-1.18621E-004	12	...........	-327.56
	8829	4415	1.33748E+000	3.95565E-001	0.00000E+000	1.33900E+000	-1.14621E-004	12	...........	-327.56
	8850	4425.5	1.35840E+000	4.47392E-001	0.00000E+000	1.36000E+000	-1.18855E-004	12	...........	-327.56
	8871	4436	1.37936E+000	4.93280E-001	0.00000E+000	1.38100E+000	-1.17588E-004	12	...........	-327.56
	8892	4446.5	1.40028E+000	5.39816E-001	0.00000E+000	1.40200E+000	-1.17688E-004	12	...........	-327.56
	8913	4457	1.42121E+000	5.88589E-001	0.00000E+000	1.42300E+000	-1.20021E-004	12	...........	-327.56
	8934	4467.5	1.44226E+000	6.31848E-001	0.00000E+000	1.44400E+000	-1.15855E-004	12	...........	-327.56
	8955	4478	1.46319E+000	6.75604E-001	0.00000E+000	1.46500E+000	-1.21388E-004	12	...........	-327.56
	8976	4488.5	1.48410E+000	7.24372E-001	0.00000E+000	1.48600E+000	-1.22455E-004	12	...........	-327.56
	8997	4499	1.50507E+000	7.66722E-001	0.00000E+000	1.50700E+000	-1.19821E-004	12	...........	-327.56
	9018	4509.5	1.52597E+000	8.08712E-001	0.00000E+000	1.52800E+000	-1.18288E-004	12	...........	-327.56
	9039	4520	1.54697E+000	8.50638E-001	0.00000E+000	1.54900E+000	-1.16855E-004	12	...........	-327.56
	9060	4530.5	1.56793E+000	9.00457E-001	0.00000E+000	1.57000E+000	-1.20855E-004	12	...........	-327.56
	9081	4541	1.58889E+000	9.36067E-001	0.00000E+000	1.59100E+000	-1.16855E-004	12	...........	-327.56
	9102	4551.5	1.60984E+000	9.80113E-001	0.00000E+000	1.61200E+000	-1.16188E-004	12	...........	-327.56
	9123	4562	1.63077E+000	1.02172E+000	0.00000E+000	1.63300E+000	-1.16321E-004	12	...........	-327.56
	9144	4572.5	1.65168E+000	1.06191E+000	0.00000E+000	1.65400E+000	-1.17588E-004	12	...........	-327.56
	9165	4583	1.67275E+000	1.10600E+000	0.00000E+000	1.67500E+000	-1.13688E-004	12	...........	-327.56
	9186	4593.5	1.69369E+000	1.14505E+000	0.00000E+000	1.69600E+000	-1.18721E-004	12	...........	-327.56
	9190	4595.5	1.69770E+000	1.15297E+000	0.00000E+000	1.70000E+000	-1.17255E-004	12	...........	-327.56