Folder: ectools/testing/data (part 13)

File: 240902_23_MCL13_cspWE_CV1_750C_CO2.DTA
EXPLAIN
TAG	CV
TITLE	LABEL	Cyclic Voltammetry	Test Identifier
DATE	LABEL	9/4/2024	Date
TIME	LABEL	1:42:02	Time
NOTES	NOTES	5	Notes...
	cswWE - carbon steel wire
cspWE - carbon steel plate 2x2 tapered

Carbon steel plate counter electrode
Carbon steel wire reference electrode
PSTAT	PSTAT	REF3000-48128	Potentiostat
VINIT	POTEN	0.00000E+000	T	Initial E (V)
VLIMIT1	POTEN	1.70000E+000	F	Scan Limit 1 (V)
VLIMIT2	POTEN	-8.00000E-001	F	Scan Limit 2 (V)
VFINAL	POTEN	1.70000E+000	F	Final E (V)
SCANRATE	QUANT	9.99998E-001	Scan Rate (mV/s)
STEPSIZE	QUANT	1.00000E+000	Step Size (mV)
CYCLES	IQUANT	2	Cycles (#)
IMODE	SELECTOR	0	I/E Range Mode
IRANGE	QUANT	3.00000E-001	Max Current (mA)
AREA	QUANT	1.00000E+000	Sample Area (cm^2)
EQDELAY	QUANT	0.00000E+000	Equil. Time (s)
IRCOMP	SELECTOR	0	IRComp
PFCOR	QUANT	5.00000E+001	PF Corr. (ohm)
SAMPLINGMODE	SELECTOR	1	Sampling Mode
EOC	QUANT	0.5299046	Open Circuit (V)
ELECTRODETYPE	SELECTOR	0	Electrode Type
STRIPPING	TOGGLE	F	Used for Stripping
SEQUENCER	TOGGLE	TRUE	Run as Sequence
PSTATMODEL	IQUANT	5	Pstat Model
PSTATSECTION	LABEL	REF3000-48128	Pstat Section
PSTATSERIALNO	LABEL	48128	Pstat Serial Number
CTRLMODE	IQUANT	1	Control Mode
ELECTROMETER	IQUANT	0	RE=0 or CS=1
IESTAB	IQUANT	2	I/E Stability
CASPEED	IQUANT	4	Control Amp Speed
CONVENTION	IQUANT	1	Current Convention
ICHRANGE	IQUANT	2	Ich Range
ICHRANGEMODE	TOGGLE	F	Ich Auto Range
ICHOFFSETENABLE	TOGGLE	F	Ich Offset Enable
ICHOFFSET	QUANT	0	Ich Offset (V)
ICHFILTER	IQUANT	3	Ich Filter
VCHRANGE	IQUANT	2	Vch Range
VCHRANGEMODE	TOGGLE	F	Vch Auto Range
VCHOFFSETENABLE	TOGGLE	F	Vch Offset Enable
VCHOFFSET	QUANT	0	Vch Offset (V)
VCHFILTER	IQUANT	3	Vch Filter
ACHRANGE	IQUANT	2	Ach Range
ACHOFFSETENABLE	TOGGLE	F	Ach Offset Enable
ACHOFFSET	QUANT	0	Ach Offset (V)
ACHFILTER	IQUANT	1	Ach Filter
IERANGELOWERLIMIT	IQUANT	2	I/E Range Lower Limit
IERANGEMODE	TOGGLE	T	I/E AutoRange
IERANGE	IQUANT	9	I/E Range
POSFEEDENABLE	TOGGLE	F	Positive Feedback IR Comp
POSFEEDRESISTANCE	QUANT	0	Positive Feedback Resistance (ohm)
ACHSELECT	IQUANT	4	Ach Select
SENSECABLEID	IQUANT	14	Sense Cable ID
PWRCABLEID	IQUANT	7	Power Cable ID
DCCALDATE	LABEL	8/16/2024	DC Calibration Date
ACCALDATE	LABEL	8/16/2024	AC Calibration Date
THERMOSELECT	IQUANT	1	Thermo Select
FRAMEWORKVERSION	LABEL	7.10.3	Framework Version
INSTRUMENTVERSION	LABEL	4.91	Instrument Version
COMMVERSION	LABEL	5.10	Communications Version
CPUPLDVERSION	LABEL	6.00	CPU PLD Version
CTRLPLDVERSION	LABEL	3.21	CTRL PLD Version
PSTATPLDVERSION	LABEL	0.00	PSTAT PLD Version
COMPLIANCEVOLTAGE	IQUANT	0	Compliance Voltage
CURVE1	TABLE
	Pt	T	Vf	Im	Vu	Sig	Ach	IERange	Over	Temp
	#	s	V vs. Ref.	A	V	V	V	#	bits	deg C
	0	1	5.29001E-001	2.47289E-003	0.00000E+000	5.29900E-001	-1.07671E-004	9	...........	-327.56
	37	38	5.66229E-001	7.77095E-002	0.00000E+000	5.66900E-001	-1.18121E-004	11	...........	-327.56
	74	75	6.03115E-001	1.18285E-001	0.00000E+000	6.03900E-001	-1.18671E-004	11	...........	-327.56
	111	112	6.40015E-001	1.33036E-001	0.00000E+000	6.40900E-001	-1.18955E-004	11	...........	-327.56
	148	149	6.77041E-001	1.39134E-001	0.00000E+000	6.77900E-001	-1.19371E-004	11	...........	-327.56
	185	186	7.13969E-001	1.33101E-001	0.00000E+000	7.14900E-001	-1.15121E-004	11	...........	-327.56
	222	223	7.50970E-001	1.32464E-001	0.00000E+000	7.51900E-001	-1.15721E-004	11	...........	-327.56
	259	260	7.87869E-001	1.31115E-001	0.00000E+000	7.88900E-001	-1.14138E-004	11	...........	-327.56
	296	297	8.24837E-001	1.32795E-001	0.00000E+000	8.25900E-001	-1.19071E-004	11	...........	-327.56
	333	334	8.61783E-001	1.30901E-001	0.00000E+000	8.62900E-001	-1.17488E-004	11	...........	-327.56
	370	371	8.98808E-001	1.25840E-001	0.00000E+000	8.99900E-001	-1.16455E-004	11	...........	-327.56
	407	408	9.35711E-001	1.23851E-001	0.00000E+000	9.36900E-001	-1.18171E-004	11	...........	-327.56
	444	445	9.72723E-001	1.24627E-001	0.00000E+000	9.73900E-001	-1.18921E-004	11	...........	-327.56
	481	482	1.00972E+000	1.27375E-001	0.00000E+000	1.01090E+000	-1.18321E-004	11	...........	-327.56
	518	519	1.04661E+000	1.42554E-001	0.00000E+000	1.04790E+000	-1.18338E-004	11	...........	-327.56
	555	556	1.08355E+000	1.79773E-001	0.00000E+000	1.08490E+000	-1.18138E-004	11	...........	-327.56
	592	593	1.12037E+000	2.43237E-001	0.00000E+000	1.12190E+000	-1.15055E-004	11	...........	-327.56
	629	630	1.15758E+000	3.17883E-001	0.00000E+000	1.15890E+000	-1.18221E-004	12	...........	-327.56
	666	667	1.19445E+000	4.06621E-001	0.00000E+000	1.19590E+000	-1.20221E-004	12	...........	-327.56
	703	704	1.23142E+000	5.00109E-001	0.00000E+000	1.23290E+000	-1.17538E-004	12	...........	-327.56
	740	741	1.26823E+000	6.24040E-001	0.00000E+000	1.26990E+000	-1.21855E-004	12	...........	-327.56
	777	778	1.30516E+000	7.57409E-001	0.00000E+000	1.30690E+000	-1.17655E-004	12	...........	-327.56
	814	815	1.34205E+000	9.00600E-001	0.00000E+000	1.34390E+000	-1.20838E-004	12	...........	-327.56
	851	852	1.37891E+000	1.04268E+000	0.00000E+000	1.38090E+000	-1.21705E-004	12	...........	-327.56
	888	889	1.41589E+000	1.16277E+000	0.00000E+000	1.41790E+000	-1.20921E-004	12	...........	-327.56
	925	926	1.45274E+000	1.27513E+000	0.00000E+000	1.45490E+000	-1.17355E-004	12	...........	-327.56
	962	963	1.48969E+000	1.39483E+000	0.00000E+000	1.49190E+000	-1.22721E-004	12	...........	-327.56
	999	1000	1.52657E+000	1.50205E+000	0.00000E+000	1.52890E+000	-1.19905E-004	12	...........	-327.56
	1036	1037	1.56353E+000	1.59754E+000	0.00000E+000	1.56590E+000	-1.21305E-004	12	...........	-327.56
	1073	1074	1.60038E+000	1.71678E+000	0.00000E+000	1.60290E+000	-1.16755E-004	12	...........	-327.56
	1110	1111	1.63738E+000	1.86054E+000	0.00000E+000	1.63990E+000	-1.21455E-004	12	...........	-327.56
	1147	1148	1.67435E+000	1.97873E+000	0.00000E+000	1.67690E+000	-1.13555E-004	12	...........	-327.56
	1184	1185	1.68331E+000	2.00217E+000	0.00000E+000	1.68590E+000	-1.19105E-004	12	...........	-327.56
	1221	1222	1.64639E+000	1.88708E+000	0.00000E+000	1.64890E+000	-1.19788E-004	12	...........	-327.56
	1258	1259	1.60944E+000	1.81696E+000	0.00000E+000	1.61190E+000	-1.16821E-004	12	...........	-327.56
	1295	1296	1.57249E+000	1.70540E+000	0.00000E+000	1.57490E+000	-1.17238E-004	12	...........	-327.56
	1332	1333	1.53553E+000	1.62219E+000	0.00000E+000	1.53790E+000	-1.16921E-004	12	...........	-327.56
	1369	1370	1.49854E+000	1.51434E+000	0.00000E+000	1.50090E+000	-1.21471E-004	12	...........	-327.56
	1406	1407	1.46169E+000	1.42245E+000	0.00000E+000	1.46390E+000	-1.19821E-004	12	...........	-327.56
	1443	1444	1.42470E+000	1.32406E+000	0.00000E+000	1.42690E+000	-1.13105E-004	12	...........	-327.56
	1480	1481	1.38783E+000	1.21428E+000	0.00000E+000	1.38990E+000	-1.13405E-004	12	...........	-327.56
	1517	1518	1.35088E+000	1.07578E+000	0.00000E+000	1.35290E+000	-1.16955E-004	12	...........	-327.56
	1554	1555	1.31404E+000	9.86656E-001	0.00000E+000	1.31590E+000	-1.12721E-004	12	...........	-327.56
	1591	1592	1.27710E+000	8.82276E-001	0.00000E+000	1.27890E+000	-1.13071E-004	12	...........	-327.56
	1628	1629	1.24023E+000	7.91643E-001	0.00000E+000	1.24190E+000	-1.10938E-004	12	...........	-327.56
	1665	1666	1.20324E+000	6.86390E-001	0.00000E+000	1.20490E+000	-1.13705E-004	12	...........	-327.56
	1702	1703	1.16634E+000	5.86310E-001	0.00000E+000	1.16790E+000	-1.14688E-004	12	...........	-327.56
[...]
	10309	10310	8.37303E-001	1.39866E+000	0.00000E+000	8.39000E-001	-1.21055E-004	12	...........	-327.56
	10335	10336	8.63299E-001	1.36872E+000	0.00000E+000	8.65000E-001	-1.22955E-004	12	...........	-327.56
	10361	10362	8.89297E-001	1.34552E+000	0.00000E+000	8.91000E-001	-1.24088E-004	12	...........	-327.56
	10387	10388	9.15301E-001	1.32263E+000	0.00000E+000	9.17000E-001	-1.24971E-004	12	...........	-327.56
	10413	10414	9.41233E-001	1.28820E+000	0.00000E+000	9.43000E-001	-1.22705E-004	12	...........	-327.56
	10439	10440	9.67263E-001	1.23977E+000	0.00000E+000	9.69000E-001	-1.25138E-004	12	...........	-327.56
	10465	10466	9.93268E-001	1.17640E+000	0.00000E+000	9.95000E-001	-1.25138E-004	12	...........	-327.56
	10491	10492	1.01931E+000	1.08737E+000	0.00000E+000	1.02100E+000	-1.22355E-004	12	...........	-327.56
	10517	10518	1.04534E+000	9.70758E-001	0.00000E+000	1.04700E+000	-1.20238E-004	12	...........	-327.56
	10543	10544	1.07139E+000	8.59368E-001	0.00000E+000	1.07300E+000	-1.21455E-004	12	...........	-327.56
	10569	10570	1.09749E+000	7.49171E-001	0.00000E+000	1.09900E+000	-1.22071E-004	12	...........	-327.56
	10595	10596	1.12348E+000	6.81094E-001	0.00000E+000	1.12500E+000	-1.17821E-004	12	...........	-327.56
	10621	10622	1.14944E+000	6.39741E-001	0.00000E+000	1.15100E+000	-1.18138E-004	12	...........	-327.56
	10647	10648	1.17545E+000	6.13148E-001	0.00000E+000	1.17700E+000	-1.20155E-004	12	...........	-327.56
	10673	10674	1.20146E+000	6.15186E-001	0.00000E+000	1.20300E+000	-1.21755E-004	12	...........	-327.56
	10699	10700	1.22741E+000	6.45887E-001	0.00000E+000	1.22900E+000	-1.20038E-004	12	...........	-327.56
	10725	10726	1.25332E+000	7.51498E-001	0.00000E+000	1.25500E+000	-1.19588E-004	12	...........	-327.56
	10751	10752	1.27928E+000	7.52194E-001	0.00000E+000	1.28100E+000	-1.21821E-004	12	...........	-327.56
	10777	10778	1.30525E+000	7.78947E-001	0.00000E+000	1.30700E+000	-1.18855E-004	12	...........	-327.56
	10803	10804	1.33119E+000	8.27228E-001	0.00000E+000	1.33300E+000	-1.21021E-004	12	...........	-327.56
	10829	10830	1.35713E+000	9.02683E-001	0.00000E+000	1.35900E+000	-1.18171E-004	12	...........	-327.56
	10855	10856	1.38307E+000	9.49385E-001	0.00000E+000	1.38500E+000	-1.18921E-004	12	...........	-327.56
	10881	10882	1.40903E+000	1.01125E+000	0.00000E+000	1.41100E+000	-1.18488E-004	12	...........	-327.56
	10907	10908	1.43497E+000	1.09252E+000	0.00000E+000	1.43700E+000	-1.21688E-004	12	...........	-327.56
	10933	10934	1.46093E+000	1.14414E+000	0.00000E+000	1.46300E+000	-1.21488E-004	12	...........	-327.56
	10959	10960	1.48687E+000	1.19654E+000	0.00000E+000	1.48900E+000	-1.21438E-004	12	...........	-327.56
	10985	10986	1.51282E+000	1.27194E+000	0.00000E+000	1.51500E+000	-1.21088E-004	12	...........	-327.56
	11011	11012	1.53873E+000	1.36341E+000	0.00000E+000	1.54100E+000	-1.19221E-004	12	...........	-327.56
	11037	11038	1.56471E+000	1.44658E+000	0.00000E+000	1.56700E+000	-1.20488E-004	12	...........	-327.56
	11063	11064	1.59062E+000	1.58710E+000	0.00000E+000	1.59300E+000	-1.19471E-004	12	...........	-327.56
	11089	11090	1.61658E+000	1.67422E+000	0.00000E+000	1.61900E+000	-1.16738E-004	12	...........	-327.56
	11115	11116	1.64249E+000	1.78195E+000	0.00000E+000	1.64500E+000	-1.21188E-004	12	...........	-327.56
	11141	11142	1.66846E+000	1.92678E+000	0.00000E+000	1.67100E+000	-1.17355E-004	12	...........	-327.56
	11167	11168	1.69444E+000	1.95303E+000	0.00000E+000	1.69700E+000	-1.19488E-004	12	...........	-327.56
	11170	11171	1.69747E+000	1.95711E+000	0.00000E+000	1.70000E+000	-1.19055E-004	12	...........	-327.56

File: 240902_24_MCL13_cspWE_CV2_750C_CO2.DTA
EXPLAIN
TAG	CV
TITLE	LABEL	Cyclic Voltammetry	Test Identifier
DATE	LABEL	9/4/2024	Date
TIME	LABEL	4:49:14	Time
NOTES	NOTES	5	Notes...
	cswWE - carbon steel wire
cspWE - carbon steel plate 2x2 tapered

Carbon steel plate counter electrode
Carbon steel wire reference electrode
PSTAT	PSTAT	REF3000-48128	Potentiostat
VINIT	POTEN	0.00000E+000	T	Initial E (V)
VLIMIT1	POTEN	1.70000E+000	F	Scan Limit 1 (V)
VLIMIT2	POTEN	-1.00000E+000	F	Scan Limit 2 (V)
VFINAL	POTEN	1.70000E+000	F	Final E (V)
SCANRATE	QUANT	9.99998E-001	Scan Rate (mV/s)
STEPSIZE	QUANT	1.00000E+000	Step Size (mV)
CYCLES	IQUANT	6	Cycles (#)
IMODE	SELECTOR	0	I/E Range Mode
IRANGE	QUANT	3.00000E-001	Max Current (mA)
AREA	QUANT	1.00000E+000	Sample Area (cm^2)
EQDELAY	QUANT	0.00000E+000	Equil. Time (s)
IRCOMP	SELECTOR	0	IRComp
PFCOR	QUANT	5.00000E+001	PF Corr. (ohm)
SAMPLINGMODE	SELECTOR	1	Sampling Mode
EOC	QUANT	0.4850335	Open Circuit (V)
ELECTRODETYPE	SELECTOR	0	Electrode Type
STRIPPING	TOGGLE	F	Used for Stripping
SEQUENCER	TOGGLE	TRUE	Run as Sequence
PSTATMODEL	IQUANT	5	Pstat Model
PSTATSECTION	LABEL	REF3000-48128	Pstat Section
PSTATSERIALNO	LABEL	48128	Pstat Serial Number
CTRLMODE	IQUANT	1	Control Mode
ELECTROMETER	IQUANT	0	RE=0 or CS=1
IESTAB	IQUANT	2	I/E Stability
CASPEED	IQUANT	4	Control Amp Speed
CONVENTION	IQUANT	1	Current Convention
ICHRANGE	IQUANT	2	Ich Range
ICHRANGEMODE	TOGGLE	F	Ich Auto Range
ICHOFFSETENABLE	TOGGLE	F	Ich Offset Enable
ICHOFFSET	QUANT	0	Ich Offset (V)
ICHFILTER	IQUANT	3	Ich Filter
VCHRANGE	IQUANT	2	Vch Range
VCHRANGEMODE	TOGGLE	F	Vch Auto Range
VCHOFFSETENABLE	TOGGLE	F	Vch Offset Enable
VCHOFFSET	QUANT	0	Vch Offset (V)
VCHFILTER	IQUANT	3	Vch Filter
ACHRANGE	IQUANT	2	Ach Range
ACHOFFSETENABLE	TOGGLE	F	Ach Offset Enable
ACHOFFSET	QUANT	0	Ach Offset (V)
ACHFILTER	IQUANT	1	Ach Filter
IERANGELOWERLIMIT	IQUANT	2	I/E Range Lower Limit
IERANGEMODE	TOGGLE	T	I/E AutoRange
IERANGE	IQUANT	9	I/E Range
POSFEEDENABLE	TOGGLE	F	Positive Feedback IR Comp
POSFEEDRESISTANCE	QUANT	0	Positive Feedback Resistance (ohm)
ACHSELECT	IQUANT	4	Ach Select
SENSECABLEID	IQUANT	14	Sense Cable ID
PWRCABLEID	IQUANT	7	Power Cable ID
DCCALDATE	LABEL	8/16/2024	DC Calibration Date
ACCALDATE	LABEL	8/16/2024	AC Calibration Date
THERMOSELECT	IQUANT	1	Thermo Select
FRAMEWORKVERSION	LABEL	7.10.3	Framework Version
INSTRUMENTVERSION	LABEL	4.91	Instrument Version
COMMVERSION	LABEL	5.10	Communications Version
CPUPLDVERSION	LABEL	6.00	CPU PLD Version
CTRLPLDVERSION	LABEL	3.21	CTRL PLD Version
PSTATPLDVERSION	LABEL	0.00	PSTAT PLD Version
COMPLIANCEVOLTAGE	IQUANT	0	Compliance Voltage
EXPERIMENTABORTED	TOGGLE	T	Experiment Aborted
CURVE	TABLE	13937
	Pt	T	Vf	Im	Vu	Sig	Ach	IERange	Over	Cycle	Temp
	#	s	V vs. Ref.	A	V	V	V	#	bits	#	deg C
	0	1	4.84107E-001	3.29009E-003	0.00000E+000	4.85050E-001	-9.59714E-005	9	....ih..i..	0	-327.56
	144	145	6.28157E-001	2.70427E-001	0.00000E+000	6.29050E-001	-1.26855E-004	12	...........	0	-327.56
	288	289	7.72058E-001	3.42760E-001	0.00000E+000	7.73050E-001	-1.26538E-004	12	...........	0	-327.56
	432	433	9.15905E-001	3.09970E-001	0.00000E+000	9.17050E-001	-1.23571E-004	12	...........	0	-327.56
	576	577	1.05984E+000	3.15784E-001	0.00000E+000	1.06105E+000	-1.23838E-004	12	...........	0	-327.56
	720	721	1.20353E+000	5.16323E-001	0.00000E+000	1.20505E+000	-1.26155E-004	12	...........	0	-327.56
	864	865	1.34718E+000	7.85804E-001	0.00000E+000	1.34905E+000	-1.28071E-004	12	...........	0	-327.56
	1008	1009	1.49089E+000	1.25562E+000	0.00000E+000	1.49305E+000	-1.24205E-004	12	...........	0	-327.56
	1152	1153	1.63455E+000	1.76239E+000	0.00000E+000	1.63705E+000	-1.31488E-004	12	...........	0	-327.56
	1296	1297	1.61660E+000	1.71086E+000	0.00000E+000	1.61905E+000	-1.23105E-004	12	...........	0	-327.56
	1440	1441	1.47276E+000	1.31036E+000	0.00000E+000	1.47505E+000	-1.25121E-004	12	...........	0	-327.56
	1584	1585	1.32916E+000	9.27461E-001	0.00000E+000	1.33105E+000	-1.21138E-004	12	...........	0	-327.56
	1728	1729	1.18554E+000	5.36348E-001	0.00000E+000	1.18705E+000	-1.24521E-004	12	...........	0	-327.56
	1872	1873	1.04156E+000	2.25597E-001	0.00000E+000	1.04305E+000	-1.22205E-004	11	...........	0	-327.56
	2016	2017	8.97921E-001	1.37547E-001	0.00000E+000	8.99050E-001	-1.19005E-004	11	...........	0	-327.56
	2160	2161	7.54091E-001	1.31287E-001	0.00000E+000	7.55050E-001	-1.21721E-004	11	...........	0	-327.56
	2304	2305	6.10252E-001	8.04314E-002	0.00000E+000	6.11050E-001	-1.24121E-004	11	...........	0	-327.56
	2448	2449	4.66469E-001	7.94897E-003	0.00000E+000	4.67050E-001	-1.27455E-004	10	...........	0	-327.56
	2592	2593	3.22720E-001	-8.48261E-002	0.00000E+000	3.23050E-001	-1.26405E-004	11	...........	0	-327.56
	2736	2737	1.79098E-001	-1.77549E-001	0.00000E+000	1.79050E-001	-1.25538E-004	11	...........	0	-327.56
	2880	2881	3.51321E-002	-3.23631E-001	0.00000E+000	3.50500E-002	-1.28988E-004	12	...........	0	-327.56
	3024	3025	-1.08553E-001	-3.55301E-001	0.00000E+000	-1.08950E-001	-1.30688E-004	12	...........	0	-327.56
	3168	3169	-2.52479E-001	-2.52750E-001	0.00000E+000	-2.52950E-001	-1.33705E-004	12	...........	0	-327.56
	3312	3313	-3.96416E-001	-3.02727E-001	0.00000E+000	-3.96950E-001	-1.29488E-004	12	...........	0	-327.56
	3456	3457	-5.40117E-001	-5.11347E-001	0.00000E+000	-5.40950E-001	-1.29838E-004	12	...........	0	-327.56
	3600	3601	-6.83764E-001	-8.14757E-001	0.00000E+000	-6.84950E-001	-1.31855E-004	12	...........	0	-327.56
	3744	3745	-8.27445E-001	-1.13477E+000	0.00000E+000	-8.28950E-001	-1.31005E-004	12	...........	0	-327.56
	3888	3889	-9.71126E-001	-1.46865E+000	0.00000E+000	-9.72950E-001	-1.28555E-004	12	...........	0	-327.56
	4032	4033	-8.81595E-001	-1.04182E+000	0.00000E+000	-8.83000E-001	-1.30888E-004	12	...........	1	-327.56
	4176	4177	-7.37848E-001	-6.37041E-001	0.00000E+000	-7.39000E-001	-1.27888E-004	12	...........	1	-327.56
	4320	4321	-5.94231E-001	-3.41049E-001	0.00000E+000	-5.95000E-001	-1.29955E-004	12	...........	1	-327.56
	4464	4465	-4.50425E-001	-6.62323E-002	0.00000E+000	-4.51000E-001	-1.28621E-004	11	...........	1	-327.56
	4608	4609	-3.06932E-001	1.49041E-001	0.00000E+000	-3.07000E-001	-1.28405E-004	11	...........	1	-327.56
	4752	4753	-1.63252E-001	2.51651E-001	0.00000E+000	-1.63000E-001	-1.28171E-004	11	...........	1	-327.56
	4896	4897	-1.90895E-002	3.47210E-001	0.00000E+000	-1.90000E-002	-1.29638E-004	12	...........	1	-327.56
	5040	5041	1.24510E-001	3.82706E-001	0.00000E+000	1.25000E-001	-1.28088E-004	12	...........	1	-327.56
	5184	5185	2.68274E-001	6.16644E-001	0.00000E+000	2.69000E-001	-1.33521E-004	12	...........	1	-327.56
	5328	5329	4.12025E-001	8.00471E-001	0.00000E+000	4.13000E-001	-1.33771E-004	12	...........	1	-327.56
	5472	5473	5.55768E-001	9.99745E-001	0.00000E+000	5.57000E-001	-1.29388E-004	12	...........	1	-327.56
	5616	5617	6.99565E-001	1.28385E+000	0.00000E+000	7.01000E-001	-1.31288E-004	12	...........	1	-327.56
	5760	5761	8.43352E-001	1.31009E+000	0.00000E+000	8.45000E-001	-1.30671E-004	12	...........	1	-327.56
	5904	5905	9.87332E-001	9.77676E-001	0.00000E+000	9.89000E-001	-1.32171E-004	12	...........	1	-327.56
	6048	6049	1.13133E+000	8.77768E-001	0.00000E+000	1.13300E+000	-1.29138E-004	12	...........	1	-327.56
	6192	6193	1.27520E+000	8.62262E-001	0.00000E+000	1.27700E+000	-1.27605E-004	12	...........	1	-327.56
	6336	6337	1.41904E+000	1.01316E+000	0.00000E+000	1.42100E+000	-1.24121E-004	12	...........	1	-327.56
[...]
	9072	9073	-7.55693E-001	-9.40712E-001	0.00000E+000	-7.57000E-001	-1.33355E-004	12	...........	1	-327.56
	9216	9217	-8.99337E-001	-1.28077E+000	0.00000E+000	-9.01000E-001	-1.29521E-004	12	...........	1	-327.56
	9360	9361	-9.53362E-001	-1.21130E+000	0.00000E+000	-9.55000E-001	-1.26871E-004	12	...........	2	-327.56
	9504	9505	-8.09692E-001	-8.33146E-001	0.00000E+000	-8.11000E-001	-1.29988E-004	12	...........	2	-327.56
	9648	9649	-6.66078E-001	-4.98720E-001	0.00000E+000	-6.67000E-001	-1.30738E-004	12	...........	2	-327.56
	9792	9793	-5.22219E-001	-1.74315E-001	0.00000E+000	-5.23000E-001	-1.27088E-004	11	...........	2	-327.56
	9936	9937	-3.78740E-001	1.07506E-001	0.00000E+000	-3.79000E-001	-1.28938E-004	11	...........	2	-327.56
	10080	10081	-2.35156E-001	2.40461E-001	0.00000E+000	-2.35000E-001	-1.31771E-004	11	...........	2	-327.56
	10224	10225	-9.09754E-002	2.69342E-001	0.00000E+000	-9.10000E-002	-1.33005E-004	12	...........	2	-327.56
	10368	10369	5.26758E-002	3.40136E-001	0.00000E+000	5.30000E-002	-1.34088E-004	12	...........	2	-327.56
	10512	10513	1.96305E-001	6.00702E-001	0.00000E+000	1.97000E-001	-1.31771E-004	12	...........	2	-327.56
	10656	10657	3.40080E-001	8.09919E-001	0.00000E+000	3.41000E-001	-1.32155E-004	12	...........	2	-327.56
	10800	10801	4.83846E-001	9.86925E-001	0.00000E+000	4.85000E-001	-1.28755E-004	12	...........	2	-327.56
	10944	10945	6.27550E-001	1.19755E+000	0.00000E+000	6.29000E-001	-1.34955E-004	12	...........	2	-327.56
	11088	11089	7.71398E-001	1.46600E+000	0.00000E+000	7.73000E-001	-1.32921E-004	12	...........	2	-327.56
	11232	11233	9.15297E-001	1.27384E+000	0.00000E+000	9.17000E-001	-1.30871E-004	12	...........	2	-327.56
	11376	11377	1.05948E+000	8.07209E-001	0.00000E+000	1.06100E+000	-1.25205E-004	12	...........	2	-327.56
	11520	11521	1.20337E+000	6.73774E-001	0.00000E+000	1.20500E+000	-1.27671E-004	12	...........	2	-327.56
	11664	11665	1.34715E+000	7.85845E-001	0.00000E+000	1.34900E+000	-1.28921E-004	12	...........	2	-327.56
	11808	11809	1.49097E+000	1.01573E+000	0.00000E+000	1.49300E+000	-1.25788E-004	12	...........	2	-327.56
	11952	11953	1.63455E+000	1.59908E+000	0.00000E+000	1.63700E+000	-1.33221E-004	12	...........	2	-327.56
	12096	12097	1.61661E+000	1.57698E+000	0.00000E+000	1.61900E+000	-1.27221E-004	12	...........	2	-327.56
	12240	12241	1.47282E+000	1.11076E+000	0.00000E+000	1.47500E+000	-1.27688E-004	12	...........	2	-327.56
	12384	12385	1.32927E+000	7.01458E-001	0.00000E+000	1.33100E+000	-1.25171E-004	12	...........	2	-327.56
	12528	12529	1.18560E+000	3.69111E-001	0.00000E+000	1.18700E+000	-1.21805E-004	12	...........	2	-327.56
	12672	12673	1.04154E+000	2.31926E-001	0.00000E+000	1.04300E+000	-1.24521E-004	11	...........	2	-327.56
	12816	12817	8.97758E-001	2.16221E-001	0.00000E+000	8.99000E-001	-1.23355E-004	11	...........	2	-327.56
	12960	12961	7.53948E-001	1.90024E-001	0.00000E+000	7.55000E-001	-1.23788E-004	11	...........	2	-327.56
	13104	13105	6.10027E-001	1.84202E-001	0.00000E+000	6.11000E-001	-1.26405E-004	11	...........	2	-327.56
	13248	13249	4.66273E-001	1.52809E-001	0.00000E+000	4.67000E-001	-1.24955E-004	11	...........	2	-327.56
	13392	13393	3.22388E-001	8.33865E-002	0.00000E+000	3.23000E-001	-1.27438E-004	11	...........	2	-327.56
	13536	13537	1.78512E-001	1.60517E-002	0.00000E+000	1.79000E-001	-1.30171E-004	10	...........	2	-327.56
	13680	13681	3.50240E-002	-7.42464E-002	0.00000E+000	3.50000E-002	-1.30405E-004	11	...........	2	-327.56
	13824	13825	-1.08661E-001	-9.36602E-002	0.00000E+000	-1.09000E-001	-1.32888E-004	11	...........	2	-327.56
	13936	13937	-2.20533E-001	-8.49647E-002	0.00000E+000	-2.21000E-001	-1.35538E-004	11	...........	2	-327.56