Folder: ectools/testing/data (part 3)

File: 240902_03_MCL13_cswWE_CV2_750C_CO2.DTA
EXPLAIN
TAG	CV
TITLE	LABEL	Cyclic Voltammetry	Test Identifier
DATE	LABEL	9/2/2024	Date
TIME	LABEL	16:19:50	Time
NOTES	NOTES	5	Notes...
	cswWE - carbon steel wire
cspWE - carbon steel plate 2x2 tapered

Carbon steel plate counter electrode
Carbon steel wire reference electrode
PSTAT	PSTAT	REF3000-48128	Potentiostat
VINIT	POTEN	0.00000E+000	T	Initial E (V)
VLIMIT1	POTEN	1.70000E+000	F	Scan Limit 1 (V)
VLIMIT2	POTEN	-4.00000E-001	F	Scan Limit 2 (V)
VFINAL	POTEN	1.70000E+000	F	Final E (V)
SCANRATE	QUANT	2.00000E+000	Scan Rate (mV/s)
STEPSIZE	QUANT	1.00000E+000	Step Size (mV)
CYCLES	IQUANT	2	Cycles (#)
IMODE	SELECTOR	0	I/E Range Mode
IRANGE	QUANT	3.00000E-001	Max Current (mA)
AREA	QUANT	1.00000E+000	Sample Area (cm^2)
EQDELAY	QUANT	0.00000E+000	Equil. Time (s)
IRCOMP	SELECTOR	0	IRComp
PFCOR	QUANT	5.00000E+001	PF Corr. (ohm)
SAMPLINGMODE	SELECTOR	1	Sampling Mode
EOC	QUANT	-0.0705966	Open Circuit (V)
ELECTRODETYPE	SELECTOR	0	Electrode Type
STRIPPING	TOGGLE	F	Used for Stripping
SEQUENCER	TOGGLE	TRUE	Run as Sequence
PSTATMODEL	IQUANT	5	Pstat Model
PSTATSECTION	LABEL	REF3000-48128	Pstat Section
PSTATSERIALNO	LABEL	48128	Pstat Serial Number
CTRLMODE	IQUANT	1	Control Mode
ELECTROMETER	IQUANT	0	RE=0 or CS=1
IESTAB	IQUANT	2	I/E Stability
CASPEED	IQUANT	4	Control Amp Speed
CONVENTION	IQUANT	1	Current Convention
ICHRANGE	IQUANT	2	Ich Range
ICHRANGEMODE	TOGGLE	F	Ich Auto Range
ICHOFFSETENABLE	TOGGLE	F	Ich Offset Enable
ICHOFFSET	QUANT	0	Ich Offset (V)
ICHFILTER	IQUANT	3	Ich Filter
VCHRANGE	IQUANT	2	Vch Range
VCHRANGEMODE	TOGGLE	F	Vch Auto Range
VCHOFFSETENABLE	TOGGLE	F	Vch Offset Enable
VCHOFFSET	QUANT	0	Vch Offset (V)
VCHFILTER	IQUANT	3	Vch Filter
ACHRANGE	IQUANT	2	Ach Range
ACHOFFSETENABLE	TOGGLE	F	Ach Offset Enable
ACHOFFSET	QUANT	0	Ach Offset (V)
ACHFILTER	IQUANT	1	Ach Filter
IERANGELOWERLIMIT	IQUANT	2	I/E Range Lower Limit
IERANGEMODE	TOGGLE	T	I/E AutoRange
IERANGE	IQUANT	9	I/E Range
POSFEEDENABLE	TOGGLE	F	Positive Feedback IR Comp
POSFEEDRESISTANCE	QUANT	0	Positive Feedback Resistance (ohm)
ACHSELECT	IQUANT	4	Ach Select
SENSECABLEID	IQUANT	14	Sense Cable ID
PWRCABLEID	IQUANT	7	Power Cable ID
DCCALDATE	LABEL	8/16/2024	DC Calibration Date
ACCALDATE	LABEL	8/16/2024	AC Calibration Date
THERMOSELECT	IQUANT	1	Thermo Select
FRAMEWORKVERSION	LABEL	7.10.3	Framework Version
INSTRUMENTVERSION	LABEL	4.91	Instrument Version
COMMVERSION	LABEL	5.10	Communications Version
CPUPLDVERSION	LABEL	6.00	CPU PLD Version
CTRLPLDVERSION	LABEL	3.21	CTRL PLD Version
PSTATPLDVERSION	LABEL	0.00	PSTAT PLD Version
COMPLIANCEVOLTAGE	IQUANT	0	Compliance Voltage
CURVE1	TABLE
	Pt	T	Vf	Im	Vu	Sig	Ach	IERange	Over	Temp
	#	s	V vs. Ref.	A	V	V	V	#	bits	deg C
	0	0.5	-7.04680E-002	-1.67464E-006	0.00000E+000	-7.06000E-002	-9.18214E-005	9	...........	-327.56
	39	20	-3.16762E-002	1.02059E-003	0.00000E+000	-3.15999E-002	-9.47881E-005	9	...........	-327.56
	78	39.5	7.21270E-003	2.80951E-003	0.00000E+000	7.40004E-003	-1.08988E-004	10	...........	-327.56
	117	59	4.61917E-002	4.20108E-003	0.00000E+000	4.64001E-002	-1.04988E-004	10	...........	-327.56
	156	78.5	8.51636E-002	5.44121E-003	0.00000E+000	8.54000E-002	-1.00255E-004	10	...........	-327.56
	195	98	1.24014E-001	5.57925E-003	0.00000E+000	1.24400E-001	-1.02288E-004	10	...........	-327.56
	234	117.5	1.63030E-001	9.14325E-003	0.00000E+000	1.63400E-001	-1.00455E-004	10	...........	-327.56
	273	137	2.01947E-001	9.98130E-003	0.00000E+000	2.02400E-001	-1.02521E-004	10	...........	-327.56
	312	156.5	2.40873E-001	1.40757E-002	0.00000E+000	2.41400E-001	-1.04355E-004	10	...........	-327.56
	351	176	2.79819E-001	1.59041E-002	0.00000E+000	2.80400E-001	-1.01021E-004	10	...........	-327.56
	390	195.5	3.18713E-001	1.93607E-002	0.00000E+000	3.19400E-001	-1.01521E-004	10	...........	-327.56
	429	215	3.57543E-001	2.75576E-002	0.00000E+000	3.58400E-001	-9.55881E-005	10	...........	-327.56
	468	234.5	3.96831E-001	3.58311E-002	0.00000E+000	3.97400E-001	-1.02888E-004	11	...........	-327.56
	507	254	4.35803E-001	3.53760E-002	0.00000E+000	4.36400E-001	-1.00521E-004	11	...........	-327.56
	546	273.5	4.74467E-001	2.34845E-002	0.00000E+000	4.75400E-001	-9.89214E-005	10	...........	-327.56
	585	293	5.13561E-001	1.66407E-002	0.00000E+000	5.14400E-001	-1.02155E-004	10	...........	-327.56
	624	312.5	5.52539E-001	1.37170E-002	0.00000E+000	5.53400E-001	-1.01921E-004	10	...........	-327.56
	663	332	5.91561E-001	1.18628E-002	0.00000E+000	5.92400E-001	-9.78548E-005	10	...........	-327.56
	702	351.5	6.30479E-001	1.09224E-002	0.00000E+000	6.31400E-001	-1.01221E-004	10	...........	-327.56
	741	371	6.69532E-001	1.04097E-002	0.00000E+000	6.70400E-001	-1.00588E-004	10	...........	-327.56
	780	390.5	7.08429E-001	1.18550E-002	0.00000E+000	7.09400E-001	-9.98881E-005	10	...........	-327.56
	819	410	7.47444E-001	1.02987E-002	0.00000E+000	7.48400E-001	-9.75548E-005	10	...........	-327.56
	858	429.5	7.86343E-001	1.06634E-002	0.00000E+000	7.87400E-001	-9.73548E-005	10	...........	-327.56
	897	449	8.25326E-001	1.08742E-002	0.00000E+000	8.26400E-001	-9.83881E-005	10	...........	-327.56
	936	468.5	8.64271E-001	1.12652E-002	0.00000E+000	8.65400E-001	-9.65214E-005	10	...........	-327.56
	975	488	9.03248E-001	1.21006E-002	0.00000E+000	9.04400E-001	-9.76548E-005	10	...........	-327.56
	1014	507.5	9.42169E-001	1.30343E-002	0.00000E+000	9.43400E-001	-9.75548E-005	10	...........	-327.56
	1053	527	9.81142E-001	1.54699E-002	0.00000E+000	9.82400E-001	-9.95214E-005	10	...........	-327.56
	1092	546.5	1.01999E+000	2.01925E-002	0.00000E+000	1.02140E+000	-9.67881E-005	10	...........	-327.56
	1131	566	1.05922E+000	2.71202E-002	0.00000E+000	1.06040E+000	-9.90548E-005	11	...........	-327.56
	1170	585.5	1.09813E+000	2.51560E-002	0.00000E+000	1.09940E+000	-9.78214E-005	11	...........	-327.56
	1209	605	1.13709E+000	2.72361E-002	0.00000E+000	1.13840E+000	-1.01055E-004	11	...........	-327.56
	1248	624.5	1.17600E+000	3.52899E-002	0.00000E+000	1.17740E+000	-9.85881E-005	11	...........	-327.56
	1287	644	1.21503E+000	5.11225E-002	0.00000E+000	1.21640E+000	-9.73214E-005	11	...........	-327.56
	1326	663.5	1.25392E+000	8.03031E-002	0.00000E+000	1.25540E+000	-9.26214E-005	11	...........	-327.56
	1365	683	1.29283E+000	1.34377E-001	0.00000E+000	1.29440E+000	-9.49548E-005	11	...........	-327.56
	1404	702.5	1.33161E+000	2.06156E-001	0.00000E+000	1.33340E+000	-9.36881E-005	11	...........	-327.56
	1443	722	1.37070E+000	2.88996E-001	0.00000E+000	1.37240E+000	-1.00955E-004	12	...........	-327.56
	1482	741.5	1.40969E+000	3.77550E-001	0.00000E+000	1.41140E+000	-1.04255E-004	12	...........	-327.56
	1521	761	1.44852E+000	4.69944E-001	0.00000E+000	1.45040E+000	-9.77881E-005	12	...........	-327.56
	1560	780.5	1.48747E+000	5.64520E-001	0.00000E+000	1.48940E+000	-9.99214E-005	12	...........	-327.56
	1599	800	1.52635E+000	6.61153E-001	0.00000E+000	1.52840E+000	-9.87214E-005	12	...........	-327.56
	1638	819.5	1.56527E+000	7.61723E-001	0.00000E+000	1.56740E+000	-9.45214E-005	12	...........	-327.56
	1677	839	1.60414E+000	8.62673E-001	0.00000E+000	1.60640E+000	-1.00488E-004	12	...........	-327.56
	1716	858.5	1.64310E+000	9.52645E-001	0.00000E+000	1.64540E+000	-1.00821E-004	12	...........	-327.56
	1755	878	1.68195E+000	1.05445E+000	0.00000E+000	1.68440E+000	-9.91214E-005	12	...........	-327.56
	1794	897.5	1.67505E+000	1.03777E+000	0.00000E+000	1.67740E+000	-9.38214E-005	12	...........	-327.56
[...]
	9436	4718.5	9.63752E-001	1.10371E-002	0.00000E+000	9.65000E-001	-8.97214E-005	10	...........	-327.56
	9458	4729.5	9.85728E-001	1.14910E-002	0.00000E+000	9.87000E-001	-9.05214E-005	10	...........	-327.56
	9480	4740.5	1.00777E+000	1.25054E-002	0.00000E+000	1.00900E+000	-8.95214E-005	10	...........	-327.56
	9502	4751.5	1.02970E+000	1.42714E-002	0.00000E+000	1.03100E+000	-9.12214E-005	10	...........	-327.56
	9524	4762.5	1.05162E+000	1.72235E-002	0.00000E+000	1.05300E+000	-9.21881E-005	10	...........	-327.56
	9546	4773.5	1.07353E+000	2.26840E-002	0.00000E+000	1.07500E+000	-9.22881E-005	10	...........	-327.56
	9568	4784.5	1.09573E+000	3.05390E-002	0.00000E+000	1.09700E+000	-9.39881E-005	11	...........	-327.56
	9590	4795.5	1.11768E+000	4.01176E-002	0.00000E+000	1.11900E+000	-9.21881E-005	11	...........	-327.56
	9612	4806.5	1.13957E+000	5.28835E-002	0.00000E+000	1.14100E+000	-9.03881E-005	11	...........	-327.56
	9634	4817.5	1.16164E+000	7.00090E-002	0.00000E+000	1.16300E+000	-9.05881E-005	11	...........	-327.56
	9656	4828.5	1.18356E+000	8.99502E-002	0.00000E+000	1.18500E+000	-8.83881E-005	11	...........	-327.56
	9678	4839.5	1.20552E+000	1.12881E-001	0.00000E+000	1.20700E+000	-8.72881E-005	11	...........	-327.56
	9700	4850.5	1.22745E+000	1.34538E-001	0.00000E+000	1.22900E+000	-9.48214E-005	11	...........	-327.56
	9722	4861.5	1.24943E+000	1.58803E-001	0.00000E+000	1.25100E+000	-8.96548E-005	11	...........	-327.56
	9744	4872.5	1.27129E+000	1.90718E-001	0.00000E+000	1.27300E+000	-9.30548E-005	11	...........	-327.56
	9766	4883.5	1.29318E+000	2.28678E-001	0.00000E+000	1.29500E+000	-8.40214E-005	11	...........	-327.56
	9788	4894.5	1.31549E+000	2.71233E-001	0.00000E+000	1.31700E+000	-8.82548E-005	12	...........	-327.56
	9810	4905.5	1.33742E+000	3.17544E-001	0.00000E+000	1.33900E+000	-9.00214E-005	12	...........	-327.56
	9832	4916.5	1.35935E+000	3.65243E-001	0.00000E+000	1.36100E+000	-9.35548E-005	12	...........	-327.56
	9854	4927.5	1.38127E+000	4.18172E-001	0.00000E+000	1.38300E+000	-9.24214E-005	12	...........	-327.56
	9876	4938.5	1.40317E+000	4.74337E-001	0.00000E+000	1.40500E+000	-9.33548E-005	12	...........	-327.56
	9898	4949.5	1.42513E+000	5.29031E-001	0.00000E+000	1.42700E+000	-9.20214E-005	12	...........	-327.56
	9920	4960.5	1.44704E+000	5.85161E-001	0.00000E+000	1.44900E+000	-9.27548E-005	12	...........	-327.56
	9942	4971.5	1.46908E+000	6.37801E-001	0.00000E+000	1.47100E+000	-8.91881E-005	12	...........	-327.56
	9964	4982.5	1.49104E+000	6.92919E-001	0.00000E+000	1.49300E+000	-9.00881E-005	12	...........	-327.56
	9986	4993.5	1.51298E+000	7.48523E-001	0.00000E+000	1.51500E+000	-9.10881E-005	12	...........	-327.56
	10008	5004.5	1.53487E+000	8.09024E-001	0.00000E+000	1.53700E+000	-9.10214E-005	12	...........	-327.56
	10030	5015.5	1.55677E+000	8.68496E-001	0.00000E+000	1.55900E+000	-9.25881E-005	12	...........	-327.56
	10052	5026.5	1.57870E+000	9.23622E-001	0.00000E+000	1.58100E+000	-9.32214E-005	12	...........	-327.56
	10074	5037.5	1.60064E+000	9.79735E-001	0.00000E+000	1.60300E+000	-8.89214E-005	12	...........	-327.56
	10096	5048.5	1.62268E+000	1.04168E+000	0.00000E+000	1.62500E+000	-8.74214E-005	12	...........	-327.56
	10118	5059.5	1.64462E+000	1.09846E+000	0.00000E+000	1.64700E+000	-8.72548E-005	12	...........	-327.56
	10140	5070.5	1.66658E+000	1.16349E+000	0.00000E+000	1.66900E+000	-9.20548E-005	12	...........	-327.56
	10162	5081.5	1.68847E+000	1.22819E+000	0.00000E+000	1.69100E+000	-9.05214E-005	12	...........	-327.56
	10171	5086	1.69750E+000	1.25155E+000	0.00000E+000	1.70000E+000	-9.04214E-005	12	...........	-327.56

File: 240902_04_MCL13_cswWE_CV2_750C_CO2.DTA
EXPLAIN
TAG	CV
TITLE	LABEL	Cyclic Voltammetry	Test Identifier
DATE	LABEL	9/2/2024	Date
TIME	LABEL	17:45:37	Time
NOTES	NOTES	5	Notes...
	cswWE - carbon steel wire
cspWE - carbon steel plate 2x2 tapered

Carbon steel plate counter electrode
Carbon steel wire reference electrode
PSTAT	PSTAT	REF3000-48128	Potentiostat
VINIT	POTEN	0.00000E+000	T	Initial E (V)
VLIMIT1	POTEN	1.70000E+000	F	Scan Limit 1 (V)
VLIMIT2	POTEN	-6.00000E-001	F	Scan Limit 2 (V)
VFINAL	POTEN	1.70000E+000	F	Final E (V)
SCANRATE	QUANT	2.00000E+000	Scan Rate (mV/s)
STEPSIZE	QUANT	1.00000E+000	Step Size (mV)
CYCLES	IQUANT	2	Cycles (#)
IMODE	SELECTOR	0	I/E Range Mode
IRANGE	QUANT	3.00000E-001	Max Current (mA)
AREA	QUANT	1.00000E+000	Sample Area (cm^2)
EQDELAY	QUANT	0.00000E+000	Equil. Time (s)
IRCOMP	SELECTOR	0	IRComp
PFCOR	QUANT	5.00000E+001	PF Corr. (ohm)
SAMPLINGMODE	SELECTOR	1	Sampling Mode
EOC	QUANT	0.4505452	Open Circuit (V)
ELECTRODETYPE	SELECTOR	0	Electrode Type
STRIPPING	TOGGLE	F	Used for Stripping
SEQUENCER	TOGGLE	TRUE	Run as Sequence
PSTATMODEL	IQUANT	5	Pstat Model
PSTATSECTION	LABEL	REF3000-48128	Pstat Section
PSTATSERIALNO	LABEL	48128	Pstat Serial Number
CTRLMODE	IQUANT	1	Control Mode
ELECTROMETER	IQUANT	0	RE=0 or CS=1
IESTAB	IQUANT	2	I/E Stability
CASPEED	IQUANT	4	Control Amp Speed
CONVENTION	IQUANT	1	Current Convention
ICHRANGE	IQUANT	2	Ich Range
ICHRANGEMODE	TOGGLE	F	Ich Auto Range
ICHOFFSETENABLE	TOGGLE	F	Ich Offset Enable
ICHOFFSET	QUANT	0	Ich Offset (V)
ICHFILTER	IQUANT	3	Ich Filter
VCHRANGE	IQUANT	2	Vch Range
VCHRANGEMODE	TOGGLE	F	Vch Auto Range
VCHOFFSETENABLE	TOGGLE	F	Vch Offset Enable
VCHOFFSET	QUANT	0	Vch Offset (V)
VCHFILTER	IQUANT	3	Vch Filter
ACHRANGE	IQUANT	2	Ach Range
ACHOFFSETENABLE	TOGGLE	F	Ach Offset Enable
ACHOFFSET	QUANT	0	Ach Offset (V)
ACHFILTER	IQUANT	1	Ach Filter
IERANGELOWERLIMIT	IQUANT	2	I/E Range Lower Limit
IERANGEMODE	TOGGLE	T	I/E AutoRange
IERANGE	IQUANT	9	I/E Range
POSFEEDENABLE	TOGGLE	F	Positive Feedback IR Comp
POSFEEDRESISTANCE	QUANT	0	Positive Feedback Resistance (ohm)
ACHSELECT	IQUANT	4	Ach Select
SENSECABLEID	IQUANT	14	Sense Cable ID
PWRCABLEID	IQUANT	7	Power Cable ID
DCCALDATE	LABEL	8/16/2024	DC Calibration Date
ACCALDATE	LABEL	8/16/2024	AC Calibration Date
THERMOSELECT	IQUANT	1	Thermo Select
FRAMEWORKVERSION	LABEL	7.10.3	Framework Version
INSTRUMENTVERSION	LABEL	4.91	Instrument Version
COMMVERSION	LABEL	5.10	Communications Version
CPUPLDVERSION	LABEL	6.00	CPU PLD Version
CTRLPLDVERSION	LABEL	3.21	CTRL PLD Version
PSTATPLDVERSION	LABEL	0.00	PSTAT PLD Version
COMPLIANCEVOLTAGE	IQUANT	0	Compliance Voltage
CURVE1	TABLE
	Pt	T	Vf	Im	Vu	Sig	Ach	IERange	Over	Temp
	#	s	V vs. Ref.	A	V	V	V	#	bits	deg C
	0	0.5	4.49853E-001	8.42792E-004	0.00000E+000	4.50550E-001	-8.11881E-005	9	...........	-327.56
	36	18.5	4.85865E-001	6.48103E-003	0.00000E+000	4.86550E-001	-8.10881E-005	10	...........	-327.56
	72	36.5	5.21832E-001	8.17764E-003	0.00000E+000	5.22550E-001	-8.63548E-005	10	...........	-327.56
	108	54.5	5.57762E-001	8.88797E-003	0.00000E+000	5.58550E-001	-9.04214E-005	10	...........	-327.56
	144	72.5	5.93770E-001	8.84519E-003	0.00000E+000	5.94550E-001	-9.15214E-005	10	...........	-327.56
	180	90.5	6.29658E-001	8.74124E-003	0.00000E+000	6.30550E-001	-8.97214E-005	10	...........	-327.56
	216	108.5	6.65659E-001	8.44857E-003	0.00000E+000	6.66550E-001	-9.11881E-005	10	...........	-327.56
	252	126.5	7.01677E-001	7.98058E-003	0.00000E+000	7.02550E-001	-9.15548E-005	10	...........	-327.56
	288	144.5	7.37560E-001	7.81514E-003	0.00000E+000	7.38550E-001	-9.01214E-005	10	...........	-327.56
	324	162.5	7.73596E-001	7.53572E-003	0.00000E+000	7.74550E-001	-8.89214E-005	10	...........	-327.56
	360	180.5	8.09534E-001	7.27242E-003	0.00000E+000	8.10550E-001	-8.90214E-005	10	...........	-327.56
	396	198.5	8.45500E-001	7.25311E-003	0.00000E+000	8.46550E-001	-8.87881E-005	10	...........	-327.56
	432	216.5	8.81499E-001	7.42364E-003	0.00000E+000	8.82550E-001	-8.99214E-005	10	...........	-327.56
	468	234.5	9.17416E-001	7.75276E-003	0.00000E+000	9.18550E-001	-8.86214E-005	10	...........	-327.56
	504	252.5	9.53408E-001	8.51087E-003	0.00000E+000	9.54550E-001	-8.75214E-005	10	...........	-327.56
	540	270.5	9.89264E-001	1.01204E-002	0.00000E+000	9.90550E-001	-8.67881E-005	10	...........	-327.56
	576	288.5	1.02524E+000	1.37281E-002	0.00000E+000	1.02655E+000	-9.21214E-005	10	...........	-327.56
	612	306.5	1.06116E+000	2.03632E-002	0.00000E+000	1.06255E+000	-9.11214E-005	10	...........	-327.56
	648	324.5	1.09727E+000	3.03826E-002	0.00000E+000	1.09855E+000	-9.08881E-005	11	...........	-327.56
	684	342.5	1.13324E+000	4.62216E-002	0.00000E+000	1.13455E+000	-8.91548E-005	11	...........	-327.56
	720	360.5	1.16910E+000	7.07382E-002	0.00000E+000	1.17055E+000	-8.89548E-005	11	...........	-327.56
	756	378.5	1.20510E+000	1.01084E-001	0.00000E+000	1.20655E+000	-8.90881E-005	11	...........	-327.56
	792	396.5	1.24100E+000	1.43147E-001	0.00000E+000	1.24255E+000	-8.76214E-005	11	...........	-327.56
	828	414.5	1.27684E+000	1.98405E-001	0.00000E+000	1.27855E+000	-8.81548E-005	11	...........	-327.56
	864	432.5	1.31276E+000	2.60425E-001	0.00000E+000	1.31455E+000	-8.26214E-005	11	...........	-327.56
	900	450.5	1.34883E+000	3.33862E-001	0.00000E+000	1.35055E+000	-9.37214E-005	12	...........	-327.56
	936	468.5	1.38483E+000	4.15814E-001	0.00000E+000	1.38655E+000	-9.39214E-005	12	...........	-327.56
	972	486.5	1.42076E+000	5.04865E-001	0.00000E+000	1.42255E+000	-8.67214E-005	12	...........	-327.56
	1008	504.5	1.45662E+000	5.96069E-001	0.00000E+000	1.45855E+000	-8.67881E-005	12	...........	-327.56
	1044	522.5	1.49260E+000	6.87284E-001	0.00000E+000	1.49455E+000	-8.98881E-005	12	...........	-327.56
	1080	540.5	1.52844E+000	7.83142E-001	0.00000E+000	1.53055E+000	-8.88214E-005	12	...........	-327.56
	1116	558.5	1.56433E+000	8.78667E-001	0.00000E+000	1.56655E+000	-8.58548E-005	12	...........	-327.56
	1152	576.5	1.60020E+000	9.79266E-001	0.00000E+000	1.60255E+000	-8.94548E-005	12	...........	-327.56
	1188	594.5	1.63617E+000	1.08114E+000	0.00000E+000	1.63855E+000	-9.02881E-005	12	...........	-327.56
	1224	612.5	1.67212E+000	1.18539E+000	0.00000E+000	1.67455E+000	-9.07548E-005	12	...........	-327.56
	1260	630.5	1.68601E+000	1.23946E+000	0.00000E+000	1.68855E+000	-8.83881E-005	12	...........	-327.56
	1296	648.5	1.65014E+000	1.16422E+000	0.00000E+000	1.65255E+000	-8.50881E-005	12	...........	-327.56
	1332	666.5	1.61423E+000	1.07401E+000	0.00000E+000	1.61655E+000	-8.99881E-005	12	...........	-327.56
	1368	684.5	1.57822E+000	9.82643E-001	0.00000E+000	1.58055E+000	-8.73881E-005	12	...........	-327.56
	1404	702.5	1.54235E+000	8.94243E-001	0.00000E+000	1.54455E+000	-8.72881E-005	12	...........	-327.56
	1440	720.5	1.50642E+000	8.08728E-001	0.00000E+000	1.50855E+000	-8.95214E-005	12	...........	-327.56
	1476	738.5	1.47057E+000	7.19341E-001	0.00000E+000	1.47255E+000	-8.84548E-005	12	...........	-327.56
	1512	756.5	1.43463E+000	6.33229E-001	0.00000E+000	1.43655E+000	-8.92881E-005	12	...........	-327.56
	1548	774.5	1.39867E+000	5.40854E-001	0.00000E+000	1.40055E+000	-8.65214E-005	12	...........	-327.56
	1584	792.5	1.36284E+000	4.57147E-001	0.00000E+000	1.36455E+000	-9.15881E-005	12	...........	-327.56
	1620	810.5	1.32691E+000	3.78470E-001	0.00000E+000	1.32855E+000	-9.20214E-005	12	...........	-327.56
[...]
	9613	4807	8.63938E-001	5.36823E-002	0.00000E+000	8.65000E-001	-8.98214E-005	11	...........	-327.56
	9637	4819	8.87930E-001	5.27917E-002	0.00000E+000	8.89000E-001	-9.29548E-005	11	...........	-327.56
	9661	4831	9.11916E-001	5.22673E-002	0.00000E+000	9.13000E-001	-8.94881E-005	11	...........	-327.56
	9685	4843	9.35892E-001	5.13993E-002	0.00000E+000	9.37000E-001	-9.09214E-005	11	...........	-327.56
	9709	4855	9.59867E-001	5.10642E-002	0.00000E+000	9.61000E-001	-8.96214E-005	11	...........	-327.56
	9733	4867	9.83862E-001	5.10269E-002	0.00000E+000	9.85000E-001	-9.17214E-005	11	...........	-327.56
	9757	4879	1.00785E+000	5.19031E-002	0.00000E+000	1.00900E+000	-8.92881E-005	11	...........	-327.56
	9781	4891	1.03181E+000	5.52093E-002	0.00000E+000	1.03300E+000	-9.16881E-005	11	...........	-327.56
	9805	4903	1.05579E+000	6.22450E-002	0.00000E+000	1.05700E+000	-8.65881E-005	11	...........	-327.56
	9829	4915	1.07974E+000	7.51301E-002	0.00000E+000	1.08100E+000	-9.09214E-005	11	...........	-327.56
	9853	4927	1.10366E+000	9.43365E-002	0.00000E+000	1.10500E+000	-8.85214E-005	11	...........	-327.56
	9877	4939	1.12756E+000	1.15571E-001	0.00000E+000	1.12900E+000	-9.16881E-005	11	...........	-327.56
	9901	4951	1.15149E+000	1.38279E-001	0.00000E+000	1.15300E+000	-9.05881E-005	11	...........	-327.56
	9925	4963	1.17544E+000	1.62998E-001	0.00000E+000	1.17700E+000	-9.12881E-005	11	...........	-327.56
	9949	4975	1.19936E+000	1.91871E-001	0.00000E+000	1.20100E+000	-8.94214E-005	11	...........	-327.56
	9973	4987	1.22331E+000	2.23063E-001	0.00000E+000	1.22500E+000	-9.06881E-005	11	...........	-327.56
	9997	4999	1.24723E+000	2.56144E-001	0.00000E+000	1.24900E+000	-8.84881E-005	11	...........	-327.56
	10021	5011	1.27144E+000	2.93890E-001	0.00000E+000	1.27300E+000	-8.98881E-005	12	...........	-327.56
	10045	5023	1.29541E+000	3.35257E-001	0.00000E+000	1.29700E+000	-8.64214E-005	12	...........	-327.56
	10069	5035	1.31933E+000	3.80471E-001	0.00000E+000	1.32100E+000	-9.50214E-005	12	...........	-327.56
	10093	5047	1.34334E+000	4.27241E-001	0.00000E+000	1.34500E+000	-9.07214E-005	12	...........	-327.56
	10117	5059	1.36729E+000	4.78502E-001	0.00000E+000	1.36900E+000	-9.36214E-005	12	...........	-327.56
	10141	5071	1.39122E+000	5.33093E-001	0.00000E+000	1.39300E+000	-9.37881E-005	12	...........	-327.56
	10165	5083	1.41518E+000	5.94174E-001	0.00000E+000	1.41700E+000	-8.92214E-005	12	...........	-327.56
	10189	5095	1.43912E+000	6.52865E-001	0.00000E+000	1.44100E+000	-8.98881E-005	12	...........	-327.56
	10213	5107	1.46305E+000	7.10312E-001	0.00000E+000	1.46500E+000	-8.44214E-005	12	...........	-327.56
	10237	5119	1.48698E+000	7.74939E-001	0.00000E+000	1.48900E+000	-9.06548E-005	12	...........	-327.56
	10261	5131	1.51091E+000	8.34188E-001	0.00000E+000	1.51300E+000	-9.04881E-005	12	...........	-327.56
	10285	5143	1.53484E+000	9.01951E-001	0.00000E+000	1.53700E+000	-9.15214E-005	12	...........	-327.56
	10309	5155	1.55874E+000	9.60630E-001	0.00000E+000	1.56100E+000	-8.78881E-005	12	...........	-327.56
	10333	5167	1.58270E+000	1.01755E+000	0.00000E+000	1.58500E+000	-8.89214E-005	12	...........	-327.56
	10357	5179	1.60663E+000	1.08161E+000	0.00000E+000	1.60900E+000	-8.87548E-005	12	...........	-327.56
	10381	5191	1.63056E+000	1.14026E+000	0.00000E+000	1.63300E+000	-9.03214E-005	12	...........	-327.56
	10405	5203	1.65448E+000	1.20064E+000	0.00000E+000	1.65700E+000	-9.03214E-005	12	...........	-327.56
	10429	5215	1.67839E+000	1.26053E+000	0.00000E+000	1.68100E+000	-9.15881E-005	12	...........	-327.56
	10448	5224.5	1.69751E+000	1.31438E+000	0.00000E+000	1.70000E+000	-8.94214E-005	12	...........	-327.56