Folder: ectools/testing/data (part 15)

File: 20240815_CP.DTA
EXPLAIN
TAG	CHRONOP
TITLE	LABEL	Chronopotentiometry Scan	Test &Identifier
DATE	LABEL	8/15/2024	Date
TIME	LABEL	9:52:07	Time
NOTES	NOTES	1	&Notes...

PSTAT	PSTAT	REF3000-48128	Potentiostat
IPRESTEP	QUANT	0.00000E+000	Pre-step Current (A)
TPRESTEP	QUANT	1.00000E+001	Pre-step Delay &Time (s)
ISTEP1	QUANT	-2.00000E-002	Step 1 Current (A)
TSTEP1	QUANT	1.80000E+003	Step 1 Time (s)
ISTEP2	QUANT	-1.28000E+000	Step 2 Current (A)
TSTEP2	QUANT	1.54800E+004	Step 2 Time (s)
SAMPLETIME	QUANT	5.00001E-001	Sa&mple Period (s)
VLIMITLOWER	QUANT	-1.00000E+001	Lower Limit &V (V)
VLIMITUPPER	QUANT	1.00000E+001	Upper Limit &V (V)
DECIMATE	TOGGLE	F	Decimate
AREA	QUANT	4.00000E+000	Electrode &Area (cm^2)
ELECTRODETYPE	SELECTOR	0	Electrode Type
STRIPPING	TOGGLE	F	Used for Stripping
EQDELAY	QUANT	0.00000E+000	Equil. &Time (s)
CONDIT	TWOPARAM	F	1.50000E+001	0.00000E+000	Conditionin&g	Time(s)	E(V)
DELAY	TWOPARAM	F	3.00000E+002	1.00000E-001	Init. De&lay	Time(s)	Stab.(mV/s)
SAMPLINGMODE	SELECTOR	1	Sampling &Mode
EOC	QUANT	0	Open Circuit (V)
PSTATMODEL	IQUANT	5	Pstat Model
PSTATSECTION	LABEL	REF3000-48128	Pstat Section
PSTATSERIALNO	LABEL	48128	Pstat Serial Number
CTRLMODE	IQUANT	0	Control Mode
ELECTROMETER	IQUANT	0	RE=0 or CS=1
IESTAB	IQUANT	0	I/E Stability
CASPEED	IQUANT	4	Control Amp Speed
CONVENTION	IQUANT	1	Current Convention
ICHRANGE	IQUANT	2	Ich Range
ICHRANGEMODE	TOGGLE	T	Ich Auto Range
ICHOFFSETENABLE	TOGGLE	F	Ich Offset Enable
ICHOFFSET	QUANT	0	Ich Offset (V)
ICHFILTER	IQUANT	3	Ich Filter
VCHRANGE	IQUANT	3	Vch Range
VCHRANGEMODE	TOGGLE	T	Vch Auto Range
VCHOFFSETENABLE	TOGGLE	F	Vch Offset Enable
VCHOFFSET	QUANT	0	Vch Offset (V)
VCHFILTER	IQUANT	3	Vch Filter
ACHRANGE	IQUANT	2	Ach Range
ACHOFFSETENABLE	TOGGLE	F	Ach Offset Enable
ACHOFFSET	QUANT	0	Ach Offset (V)
ACHFILTER	IQUANT	1	Ach Filter
IERANGELOWERLIMIT	IQUANT	2	I/E Range Lower Limit
IERANGEMODE	TOGGLE	F	I/E AutoRange
IERANGE	IQUANT	12	I/E Range
POSFEEDENABLE	TOGGLE	F	Positive Feedback IR Comp
POSFEEDRESISTANCE	QUANT	0	Positive Feedback Resistance (ohm)
ACHSELECT	IQUANT	0	Ach Select
SENSECABLEID	IQUANT	14	Sense Cable ID
PWRCABLEID	IQUANT	7	Power Cable ID
DCCALDATE	LABEL	5/21/2024	DC Calibration Date
ACCALDATE	LABEL	5/21/2024	AC Calibration Date
THERMOSELECT	IQUANT	1	Thermo Select
FRAMEWORKVERSION	LABEL	7.10.3	Framework Version
INSTRUMENTVERSION	LABEL	4.91	Instrument Version
COMMVERSION	LABEL	5.10	Communications Version
CPUPLDVERSION	LABEL	6.00	CPU PLD Version
CTRLPLDVERSION	LABEL	3.21	CTRL PLD Version
PSTATPLDVERSION	LABEL	0.00	PSTAT PLD Version
COMPLIANCEVOLTAGE	IQUANT	0	Compliance Voltage
CURVE	TABLE	34580
	Pt	T	Vf	Im	Vu	Sig	Ach	IERange	Over	Temp
	#	s	V vs. Ref.	A	V	V	V	#	bits	deg C
	0	-9.5	9.16037E-004	1.44753E-005	0.00000E+000	9.99570E-005	-8.88411E-004	12	...........	-327.56
	364	172.5	-1.75140E-001	-2.00404E-002	0.00000E+000	-2.00500E-002	-8.89178E-004	12	...........	-327.56
	728	354.5	-1.75872E-001	-2.00507E-002	0.00000E+000	-2.00500E-002	-8.97144E-004	12	...........	-327.56
	1092	536.5	-1.77342E-001	-2.00622E-002	0.00000E+000	-2.00500E-002	-8.91211E-004	12	...........	-327.56
	1456	718.5	-1.81823E-001	-2.00791E-002	0.00000E+000	-2.00500E-002	-8.93844E-004	12	...........	-327.56
	1820	900.5	-1.85281E-001	-2.00743E-002	0.00000E+000	-2.00500E-002	-8.97044E-004	12	...........	-327.56
	2184	1082.5	-1.88496E-001	-2.00571E-002	0.00000E+000	-2.00500E-002	-8.83211E-004	12	...........	-327.56
	2548	1264.5	-1.92042E-001	-2.00579E-002	0.00000E+000	-2.00500E-002	-8.86544E-004	12	...........	-327.56
	2912	1446.5	-1.95918E-001	-2.00635E-002	0.00000E+000	-2.00500E-002	-8.79544E-004	12	...........	-327.56
	3276	1628.5	-1.98430E-001	-2.00735E-002	0.00000E+000	-2.00500E-002	-8.82444E-004	12	...........	-327.56
	3640	1810.5	-8.95365E-001	-1.28060E+000	0.00000E+000	-1.29010E+000	-8.64711E-004	12	...........	-327.56
	4004	1992.5	-1.03745E+000	-1.28065E+000	0.00000E+000	-1.29010E+000	-8.68444E-004	12	...........	-327.56
	4368	2174.5	-9.34194E-001	-1.28065E+000	0.00000E+000	-1.29010E+000	-8.68411E-004	12	...........	-327.56
	4732	2356.5	-8.71488E-001	-1.28065E+000	0.00000E+000	-1.29010E+000	-8.63244E-004	12	...........	-327.56
	5096	2538.5	-8.62854E-001	-1.28065E+000	0.00000E+000	-1.29010E+000	-8.58944E-004	12	...........	-327.56
	5460	2720.5	-8.75191E-001	-1.28067E+000	0.00000E+000	-1.29010E+000	-8.63844E-004	12	...........	-327.56
	5824	2902.5	-8.70535E-001	-1.28066E+000	0.00000E+000	-1.29010E+000	-8.61811E-004	12	...........	-327.56
	6188	3084.5	-8.88615E-001	-1.28066E+000	0.00000E+000	-1.29010E+000	-8.56177E-004	12	...........	-327.56
	6552	3266.5	-8.92117E-001	-1.28067E+000	0.00000E+000	-1.29010E+000	-8.54877E-004	12	...........	-327.56
	6916	3448.5	-8.95102E-001	-1.28067E+000	0.00000E+000	-1.29010E+000	-8.54678E-004	12	...........	-327.56
	7280	3630.5	-8.89560E-001	-1.28067E+000	0.00000E+000	-1.29010E+000	-8.57944E-004	12	...........	-327.56
	7644	3812.5	-9.00099E-001	-1.28064E+000	0.00000E+000	-1.29010E+000	-8.51678E-004	12	...........	-327.56
	8008	3994.5	-9.11430E-001	-1.28067E+000	0.00000E+000	-1.29010E+000	-8.55911E-004	12	...........	-327.56
	8372	4176.5	-9.19579E-001	-1.28067E+000	0.00000E+000	-1.29010E+000	-8.55144E-004	12	...........	-327.56
	8736	4358.5	-9.20077E-001	-1.28068E+000	0.00000E+000	-1.29010E+000	-8.59211E-004	12	...........	-327.56
	9100	4540.5	-9.20114E-001	-1.28068E+000	0.00000E+000	-1.29010E+000	-8.63077E-004	12	...........	-327.56
	9464	4722.5	-9.07197E-001	-1.28067E+000	0.00000E+000	-1.29010E+000	-8.48477E-004	12	...........	-327.56
	9828	4904.5	-9.13871E-001	-1.28067E+000	0.00000E+000	-1.29010E+000	-8.55344E-004	12	...........	-327.56
	10192	5086.5	-9.28653E-001	-1.28069E+000	0.00000E+000	-1.29010E+000	-8.66777E-004	12	...........	-327.56
	10556	5268.5	-9.36436E-001	-1.28068E+000	0.00000E+000	-1.29010E+000	-8.57411E-004	12	...........	-327.56
	10920	5450.5	-9.34616E-001	-1.28069E+000	0.00000E+000	-1.29010E+000	-8.61677E-004	12	...........	-327.56
	11284	5632.5	-9.27170E-001	-1.28068E+000	0.00000E+000	-1.29010E+000	-8.59844E-004	12	...........	-327.56
	11648	5814.5	-9.38050E-001	-1.28069E+000	0.00000E+000	-1.29010E+000	-8.57877E-004	12	...........	-327.56
	12012	5996.5	-9.27416E-001	-1.28069E+000	0.00000E+000	-1.29010E+000	-8.47444E-004	12	...........	-327.56
	12376	6178.5	-9.38458E-001	-1.28069E+000	0.00000E+000	-1.29010E+000	-8.56777E-004	12	...........	-327.56
	12740	6360.5	-9.40518E-001	-1.28069E+000	0.00000E+000	-1.29010E+000	-8.59411E-004	12	...........	-327.56
	13104	6542.5	-9.43988E-001	-1.28068E+000	0.00000E+000	-1.29010E+000	-8.49144E-004	12	...........	-327.56
	13468	6724.5	-9.41310E-001	-1.28068E+000	0.00000E+000	-1.29010E+000	-8.54777E-004	12	...........	-327.56
	13832	6906.5	-9.32430E-001	-1.28068E+000	0.00000E+000	-1.29010E+000	-8.52111E-004	12	...........	-327.56
	14196	7088.5	-9.44180E-001	-1.28068E+000	0.00000E+000	-1.29010E+000	-8.46444E-004	12	...........	-327.56
	14560	7270.5	-9.46025E-001	-1.28070E+000	0.00000E+000	-1.29010E+000	-8.50577E-004	12	...........	-327.56
	14924	7452.5	-9.42211E-001	-1.28068E+000	0.00000E+000	-1.29010E+000	-8.52078E-004	12	...........	-327.56
	15288	7634.5	-9.41961E-001	-1.28069E+000	0.00000E+000	-1.29010E+000	-8.51011E-004	12	...........	-327.56
	15652	7816.5	-9.34200E-001	-1.28069E+000	0.00000E+000	-1.29010E+000	-8.61711E-004	12	...........	-327.56
[...]
	22568	11274.5	-9.35063E-001	-1.28072E+000	0.00000E+000	-1.29010E+000	-8.53544E-004	12	...........	-327.56
	22932	11456.5	-9.34632E-001	-1.28071E+000	0.00000E+000	-1.29010E+000	-8.45678E-004	12	...........	-327.56
	23296	11638.5	-9.16820E-001	-1.28072E+000	0.00000E+000	-1.29010E+000	-8.55778E-004	12	...........	-327.56
	23660	11820.5	-9.20412E-001	-1.28070E+000	0.00000E+000	-1.29010E+000	-8.51844E-004	12	...........	-327.56
	24024	12002.5	-9.19438E-001	-1.28070E+000	0.00000E+000	-1.29010E+000	-8.54277E-004	12	...........	-327.56
	24388	12184.5	-9.20992E-001	-1.28071E+000	0.00000E+000	-1.29010E+000	-8.43811E-004	12	...........	-327.56
	24752	12366.5	-9.23692E-001	-1.28071E+000	0.00000E+000	-1.29010E+000	-8.55111E-004	12	...........	-327.56
	25116	12548.5	-9.35464E-001	-1.28071E+000	0.00000E+000	-1.29010E+000	-8.52411E-004	12	...........	-327.56
	25480	12730.5	-9.32472E-001	-1.28072E+000	0.00000E+000	-1.29010E+000	-8.54577E-004	12	...........	-327.56
	25844	12912.5	-9.33761E-001	-1.28072E+000	0.00000E+000	-1.29010E+000	-8.55678E-004	12	...........	-327.56
	26208	13094.5	-9.47478E-001	-1.28072E+000	0.00000E+000	-1.29010E+000	-8.50577E-004	12	...........	-327.56
	26572	13276.5	-9.47161E-001	-1.28072E+000	0.00000E+000	-1.29010E+000	-8.49877E-004	12	...........	-327.56
	26936	13458.5	-9.35402E-001	-1.28072E+000	0.00000E+000	-1.29010E+000	-8.48611E-004	12	...........	-327.56
	27300	13640.5	-9.34845E-001	-1.28071E+000	0.00000E+000	-1.29010E+000	-8.48644E-004	12	...........	-327.56
	27664	13822.5	-9.29365E-001	-1.28071E+000	0.00000E+000	-1.29010E+000	-8.52844E-004	12	...........	-327.56
	28028	14004.5	-9.31802E-001	-1.28073E+000	0.00000E+000	-1.29010E+000	-8.46744E-004	12	...........	-327.56
	28392	14186.5	-9.29439E-001	-1.28072E+000	0.00000E+000	-1.29010E+000	-8.47411E-004	12	...........	-327.56
	28756	14368.5	-9.23759E-001	-1.28072E+000	0.00000E+000	-1.29010E+000	-8.50144E-004	12	...........	-327.56
	29120	14550.5	-9.22225E-001	-1.28072E+000	0.00000E+000	-1.29010E+000	-8.47611E-004	12	...........	-327.56
	29484	14732.5	-9.06375E-001	-1.28072E+000	0.00000E+000	-1.29010E+000	-8.44877E-004	12	...........	-327.56
	29848	14914.5	-9.13512E-001	-1.28073E+000	0.00000E+000	-1.29010E+000	-8.49644E-004	12	...........	-327.56
	30212	15096.5	-9.17785E-001	-1.28071E+000	0.00000E+000	-1.29010E+000	-8.48378E-004	12	...........	-327.56
	30576	15278.5	-9.12615E-001	-1.28071E+000	0.00000E+000	-1.29010E+000	-8.40977E-004	12	...........	-327.56
	30940	15460.5	-9.16109E-001	-1.28073E+000	0.00000E+000	-1.29010E+000	-8.37544E-004	12	...........	-327.56
	31304	15642.5	-9.16227E-001	-1.28073E+000	0.00000E+000	-1.29010E+000	-8.45644E-004	12	...........	-327.56
	31668	15824.5	-9.24649E-001	-1.28072E+000	0.00000E+000	-1.29010E+000	-8.43477E-004	12	...........	-327.56
	32032	16006.5	-9.27535E-001	-1.28072E+000	0.00000E+000	-1.29010E+000	-8.48877E-004	12	...........	-327.56
	32396	16188.5	-9.25190E-001	-1.28073E+000	0.00000E+000	-1.29010E+000	-8.44844E-004	12	...........	-327.56
	32760	16370.5	-9.34457E-001	-1.28071E+000	0.00000E+000	-1.29010E+000	-8.42678E-004	12	...........	-327.56
	33124	16552.5	-9.35628E-001	-1.28072E+000	0.00000E+000	-1.29010E+000	-8.41077E-004	12	...........	-327.56
	33488	16734.5	-9.35890E-001	-1.28073E+000	0.00000E+000	-1.29010E+000	-8.43011E-004	12	...........	-327.56
	33852	16916.5	-9.22114E-001	-1.28073E+000	0.00000E+000	-1.29010E+000	-8.31444E-004	12	...........	-327.56
	34216	17098.5	-9.18271E-001	-1.28073E+000	0.00000E+000	-1.29010E+000	-8.36344E-004	12	...........	-327.56
	34579	17280	-9.17060E-001	-1.28074E+000	0.00000E+000	-1.29010E+000	-8.33711E-004	12	...........	-327.56