Folder: ectools/testing/data (part 4)

File: 240902_05_MCL13_cswWE_CV2_750C_CO2.DTA
EXPLAIN
TAG	CV
TITLE	LABEL	Cyclic Voltammetry	Test Identifier
DATE	LABEL	9/2/2024	Date
TIME	LABEL	19:13:43	Time
NOTES	NOTES	5	Notes...
	cswWE - carbon steel wire
cspWE - carbon steel plate 2x2 tapered

Carbon steel plate counter electrode
Carbon steel wire reference electrode
PSTAT	PSTAT	REF3000-48128	Potentiostat
VINIT	POTEN	0.00000E+000	T	Initial E (V)
VLIMIT1	POTEN	1.70000E+000	F	Scan Limit 1 (V)
VLIMIT2	POTEN	-8.00000E-001	F	Scan Limit 2 (V)
VFINAL	POTEN	1.70000E+000	F	Final E (V)
SCANRATE	QUANT	2.00000E+000	Scan Rate (mV/s)
STEPSIZE	QUANT	1.00000E+000	Step Size (mV)
CYCLES	IQUANT	2	Cycles (#)
IMODE	SELECTOR	0	I/E Range Mode
IRANGE	QUANT	3.00000E-001	Max Current (mA)
AREA	QUANT	1.00000E+000	Sample Area (cm^2)
EQDELAY	QUANT	0.00000E+000	Equil. Time (s)
IRCOMP	SELECTOR	0	IRComp
PFCOR	QUANT	5.00000E+001	PF Corr. (ohm)
SAMPLINGMODE	SELECTOR	1	Sampling Mode
EOC	QUANT	0.4521599	Open Circuit (V)
ELECTRODETYPE	SELECTOR	0	Electrode Type
STRIPPING	TOGGLE	F	Used for Stripping
SEQUENCER	TOGGLE	TRUE	Run as Sequence
PSTATMODEL	IQUANT	5	Pstat Model
PSTATSECTION	LABEL	REF3000-48128	Pstat Section
PSTATSERIALNO	LABEL	48128	Pstat Serial Number
CTRLMODE	IQUANT	1	Control Mode
ELECTROMETER	IQUANT	0	RE=0 or CS=1
IESTAB	IQUANT	2	I/E Stability
CASPEED	IQUANT	4	Control Amp Speed
CONVENTION	IQUANT	1	Current Convention
ICHRANGE	IQUANT	2	Ich Range
ICHRANGEMODE	TOGGLE	F	Ich Auto Range
ICHOFFSETENABLE	TOGGLE	F	Ich Offset Enable
ICHOFFSET	QUANT	0	Ich Offset (V)
ICHFILTER	IQUANT	3	Ich Filter
VCHRANGE	IQUANT	2	Vch Range
VCHRANGEMODE	TOGGLE	F	Vch Auto Range
VCHOFFSETENABLE	TOGGLE	F	Vch Offset Enable
VCHOFFSET	QUANT	0	Vch Offset (V)
VCHFILTER	IQUANT	3	Vch Filter
ACHRANGE	IQUANT	2	Ach Range
ACHOFFSETENABLE	TOGGLE	F	Ach Offset Enable
ACHOFFSET	QUANT	0	Ach Offset (V)
ACHFILTER	IQUANT	1	Ach Filter
IERANGELOWERLIMIT	IQUANT	2	I/E Range Lower Limit
IERANGEMODE	TOGGLE	T	I/E AutoRange
IERANGE	IQUANT	9	I/E Range
POSFEEDENABLE	TOGGLE	F	Positive Feedback IR Comp
POSFEEDRESISTANCE	QUANT	0	Positive Feedback Resistance (ohm)
ACHSELECT	IQUANT	4	Ach Select
SENSECABLEID	IQUANT	14	Sense Cable ID
PWRCABLEID	IQUANT	7	Power Cable ID
DCCALDATE	LABEL	8/16/2024	DC Calibration Date
ACCALDATE	LABEL	8/16/2024	AC Calibration Date
THERMOSELECT	IQUANT	1	Thermo Select
FRAMEWORKVERSION	LABEL	7.10.3	Framework Version
INSTRUMENTVERSION	LABEL	4.91	Instrument Version
COMMVERSION	LABEL	5.10	Communications Version
CPUPLDVERSION	LABEL	6.00	CPU PLD Version
CTRLPLDVERSION	LABEL	3.21	CTRL PLD Version
PSTATPLDVERSION	LABEL	0.00	PSTAT PLD Version
COMPLIANCEVOLTAGE	IQUANT	0	Compliance Voltage
CURVE1	TABLE
	Pt	T	Vf	Im	Vu	Sig	Ach	IERange	Over	Temp
	#	s	V vs. Ref.	A	V	V	V	#	bits	deg C
	0	0.5	4.51431E-001	1.09690E-003	0.00000E+000	4.52150E-001	-7.74881E-005	9	...........	-327.56
	38	19.5	4.89395E-001	1.81141E-002	0.00000E+000	4.90150E-001	-8.18881E-005	10	...........	-327.56
	76	38.5	5.27151E-001	2.62705E-002	0.00000E+000	5.28150E-001	-8.72214E-005	10	...........	-327.56
	114	57.5	5.65466E-001	3.14220E-002	0.00000E+000	5.66150E-001	-9.07548E-005	11	...........	-327.56
	152	76.5	6.03335E-001	3.35935E-002	0.00000E+000	6.04150E-001	-9.14548E-005	11	...........	-327.56
	190	95.5	6.41413E-001	3.45110E-002	0.00000E+000	6.42150E-001	-9.35881E-005	11	...........	-327.56
	228	114.5	6.79271E-001	3.40484E-002	0.00000E+000	6.80150E-001	-9.39214E-005	11	...........	-327.56
	266	133.5	7.17274E-001	3.32748E-002	0.00000E+000	7.18150E-001	-8.81548E-005	11	...........	-327.56
	304	152.5	7.55247E-001	3.15017E-002	0.00000E+000	7.56150E-001	-8.96881E-005	11	...........	-327.56
	342	171.5	7.93200E-001	2.97147E-002	0.00000E+000	7.94150E-001	-9.08881E-005	11	...........	-327.56
	380	190.5	8.31175E-001	2.83411E-002	0.00000E+000	8.32150E-001	-9.61881E-005	11	...........	-327.56
	418	209.5	8.69132E-001	2.72869E-002	0.00000E+000	8.70150E-001	-9.13548E-005	11	...........	-327.56
	456	228.5	9.07138E-001	2.64809E-002	0.00000E+000	9.08150E-001	-9.22214E-005	11	...........	-327.56
	494	247.5	9.45032E-001	2.62800E-002	0.00000E+000	9.46150E-001	-9.13214E-005	11	...........	-327.56
	532	266.5	9.83056E-001	2.78059E-002	0.00000E+000	9.84150E-001	-9.27548E-005	11	...........	-327.56
	570	285.5	1.02097E+000	3.40470E-002	0.00000E+000	1.02215E+000	-8.98881E-005	11	...........	-327.56
	608	304.5	1.05896E+000	4.65328E-002	0.00000E+000	1.06015E+000	-9.17881E-005	11	...........	-327.56
	646	323.5	1.09683E+000	6.46422E-002	0.00000E+000	1.09815E+000	-9.23214E-005	11	...........	-327.56
	684	342.5	1.13479E+000	8.78470E-002	0.00000E+000	1.13615E+000	-8.88214E-005	11	...........	-327.56
	722	361.5	1.17272E+000	1.16282E-001	0.00000E+000	1.17415E+000	-9.34881E-005	11	...........	-327.56
	760	380.5	1.21063E+000	1.50459E-001	0.00000E+000	1.21215E+000	-8.89548E-005	11	...........	-327.56
	798	399.5	1.24849E+000	1.96365E-001	0.00000E+000	1.25015E+000	-9.08214E-005	11	...........	-327.56
	836	418.5	1.28640E+000	2.51939E-001	0.00000E+000	1.28815E+000	-8.93214E-005	11	...........	-327.56
	874	437.5	1.32460E+000	3.18038E-001	0.00000E+000	1.32615E+000	-9.26214E-005	12	...........	-327.56
	912	456.5	1.36251E+000	3.94586E-001	0.00000E+000	1.36415E+000	-9.05548E-005	12	...........	-327.56
	950	475.5	1.40036E+000	4.79164E-001	0.00000E+000	1.40215E+000	-9.13881E-005	12	...........	-327.56
	988	494.5	1.43833E+000	5.68213E-001	0.00000E+000	1.44015E+000	-9.11881E-005	12	...........	-327.56
	1026	513.5	1.47618E+000	6.61131E-001	0.00000E+000	1.47815E+000	-9.03881E-005	12	...........	-327.56
	1064	532.5	1.51413E+000	7.60204E-001	0.00000E+000	1.51615E+000	-8.59214E-005	12	...........	-327.56
	1102	551.5	1.55195E+000	8.63308E-001	0.00000E+000	1.55415E+000	-9.08214E-005	12	...........	-327.56
	1140	570.5	1.58990E+000	9.62244E-001	0.00000E+000	1.59215E+000	-8.62548E-005	12	...........	-327.56
	1178	589.5	1.62777E+000	1.06745E+000	0.00000E+000	1.63015E+000	-9.02214E-005	12	...........	-327.56
	1216	608.5	1.66574E+000	1.16389E+000	0.00000E+000	1.66815E+000	-8.87548E-005	12	...........	-327.56
	1254	627.5	1.69168E+000	1.23559E+000	0.00000E+000	1.69415E+000	-9.06214E-005	12	...........	-327.56
	1292	646.5	1.65369E+000	1.16605E+000	0.00000E+000	1.65615E+000	-8.90548E-005	12	...........	-327.56
	1330	665.5	1.61586E+000	1.07375E+000	0.00000E+000	1.61815E+000	-9.09214E-005	12	...........	-327.56
	1368	684.5	1.57784E+000	9.93041E-001	0.00000E+000	1.58015E+000	-8.75881E-005	12	...........	-327.56
	1406	703.5	1.54000E+000	8.99626E-001	0.00000E+000	1.54215E+000	-8.86548E-005	12	...........	-327.56
	1444	722.5	1.50206E+000	8.08279E-001	0.00000E+000	1.50415E+000	-8.90548E-005	12	...........	-327.56
	1482	741.5	1.46420E+000	7.25056E-001	0.00000E+000	1.46615E+000	-9.12214E-005	12	...........	-327.56
	1520	760.5	1.42625E+000	6.37079E-001	0.00000E+000	1.42815E+000	-9.17214E-005	12	...........	-327.56
	1558	779.5	1.38836E+000	5.52949E-001	0.00000E+000	1.39015E+000	-9.00214E-005	12	...........	-327.56
	1596	798.5	1.35037E+000	4.69373E-001	0.00000E+000	1.35215E+000	-9.03548E-005	12	...........	-327.56
	1634	817.5	1.31259E+000	3.94413E-001	0.00000E+000	1.31415E+000	-8.55881E-005	12	...........	-327.56
	1672	836.5	1.27460E+000	3.24826E-001	0.00000E+000	1.27615E+000	-9.00881E-005	12	...........	-327.56
	1710	855.5	1.23672E+000	2.59491E-001	0.00000E+000	1.23815E+000	-9.19881E-005	12	...........	-327.56
[...]
	10361	5181	8.12018E-001	5.59744E-002	0.00000E+000	8.13000E-001	-9.66214E-005	11	...........	-327.56
	10387	5194	8.37959E-001	5.44894E-002	0.00000E+000	8.39000E-001	-9.61881E-005	11	...........	-327.56
	10413	5207	8.63950E-001	5.31077E-002	0.00000E+000	8.65000E-001	-9.71214E-005	11	...........	-327.56
	10439	5220	8.89927E-001	5.18880E-002	0.00000E+000	8.91000E-001	-9.06548E-005	11	...........	-327.56
	10465	5233	9.15911E-001	5.06409E-002	0.00000E+000	9.17000E-001	-9.35548E-005	11	...........	-327.56
	10491	5246	9.41858E-001	4.93754E-002	0.00000E+000	9.43000E-001	-9.01881E-005	11	...........	-327.56
	10517	5259	9.67916E-001	4.81444E-002	0.00000E+000	9.69000E-001	-9.50214E-005	11	...........	-327.56
	10543	5272	9.93849E-001	4.80909E-002	0.00000E+000	9.95000E-001	-9.61214E-005	11	...........	-327.56
	10569	5285	1.01984E+000	5.01462E-002	0.00000E+000	1.02100E+000	-9.09881E-005	11	...........	-327.56
	10595	5298	1.04579E+000	5.37591E-002	0.00000E+000	1.04700E+000	-9.48214E-005	11	...........	-327.56
	10621	5311	1.07178E+000	5.88182E-002	0.00000E+000	1.07300E+000	-8.78881E-005	11	...........	-327.56
	10647	5324	1.09773E+000	6.46779E-002	0.00000E+000	1.09900E+000	-9.42548E-005	11	...........	-327.56
	10673	5337	1.12372E+000	6.97098E-002	0.00000E+000	1.12500E+000	-9.58214E-005	11	...........	-327.56
	10699	5350	1.14964E+000	7.18720E-002	0.00000E+000	1.15100E+000	-9.43548E-005	11	...........	-327.56
	10725	5363	1.17562E+000	7.07658E-002	0.00000E+000	1.17700E+000	-9.23548E-005	11	...........	-327.56
	10751	5376	1.20158E+000	7.08041E-002	0.00000E+000	1.20300E+000	-9.40214E-005	11	...........	-327.56
	10777	5389	1.22759E+000	7.87781E-002	0.00000E+000	1.22900E+000	-9.23881E-005	11	...........	-327.56
	10803	5402	1.25353E+000	9.98457E-002	0.00000E+000	1.25500E+000	-8.96881E-005	11	...........	-327.56
	10829	5415	1.27946E+000	1.33315E-001	0.00000E+000	1.28100E+000	-8.93214E-005	11	...........	-327.56
	10855	5428	1.30539E+000	1.78735E-001	0.00000E+000	1.30700E+000	-9.35548E-005	11	...........	-327.56
	10881	5441	1.33123E+000	2.29319E-001	0.00000E+000	1.33300E+000	-9.15881E-005	11	...........	-327.56
	10907	5454	1.35742E+000	2.86455E-001	0.00000E+000	1.35900E+000	-9.19548E-005	12	...........	-327.56
	10933	5467	1.38336E+000	3.47057E-001	0.00000E+000	1.38500E+000	-9.23881E-005	12	...........	-327.56
	10959	5480	1.40932E+000	4.12868E-001	0.00000E+000	1.41100E+000	-9.48881E-005	12	...........	-327.56
	10985	5493	1.43522E+000	4.81364E-001	0.00000E+000	1.43700E+000	-9.39214E-005	12	...........	-327.56
	11011	5506	1.46118E+000	5.49890E-001	0.00000E+000	1.46300E+000	-9.32548E-005	12	...........	-327.56
	11037	5519	1.48713E+000	6.25623E-001	0.00000E+000	1.48900E+000	-9.44548E-005	12	...........	-327.56
	11063	5532	1.51306E+000	6.87666E-001	0.00000E+000	1.51500E+000	-9.39548E-005	12	...........	-327.56
	11089	5545	1.53898E+000	7.53542E-001	0.00000E+000	1.54100E+000	-9.26881E-005	12	...........	-327.56
	11115	5558	1.56490E+000	8.24841E-001	0.00000E+000	1.56700E+000	-9.12881E-005	12	...........	-327.56
	11141	5571	1.59083E+000	8.96005E-001	0.00000E+000	1.59300E+000	-9.14548E-005	12	...........	-327.56
	11167	5584	1.61678E+000	9.63511E-001	0.00000E+000	1.61900E+000	-9.29214E-005	12	...........	-327.56
	11193	5597	1.64270E+000	1.04643E+000	0.00000E+000	1.64500E+000	-9.27881E-005	12	...........	-327.56
	11219	5610	1.66867E+000	1.11521E+000	0.00000E+000	1.67100E+000	-9.34548E-005	12	...........	-327.56
	11245	5623	1.69460E+000	1.19160E+000	0.00000E+000	1.69700E+000	-9.54214E-005	12	...........	-327.56
	11248	5624.5	1.69758E+000	1.20623E+000	0.00000E+000	1.70000E+000	-9.50881E-005	12	...........	-327.56

File: 240902_06_MCL13_cswWE_CV2_750C_CO2.DTA
EXPLAIN
TAG	CV
TITLE	LABEL	Cyclic Voltammetry	Test Identifier
DATE	LABEL	9/2/2024	Date
TIME	LABEL	20:48:29	Time
NOTES	NOTES	5	Notes...
	cswWE - carbon steel wire
cspWE - carbon steel plate 2x2 tapered

Carbon steel plate counter electrode
Carbon steel wire reference electrode
PSTAT	PSTAT	REF3000-48128	Potentiostat
VINIT	POTEN	0.00000E+000	T	Initial E (V)
VLIMIT1	POTEN	1.70000E+000	F	Scan Limit 1 (V)
VLIMIT2	POTEN	-1.00000E+000	F	Scan Limit 2 (V)
VFINAL	POTEN	1.70000E+000	F	Final E (V)
SCANRATE	QUANT	2.00000E+000	Scan Rate (mV/s)
STEPSIZE	QUANT	1.00000E+000	Step Size (mV)
CYCLES	IQUANT	2	Cycles (#)
IMODE	SELECTOR	0	I/E Range Mode
IRANGE	QUANT	3.00000E-001	Max Current (mA)
AREA	QUANT	1.00000E+000	Sample Area (cm^2)
EQDELAY	QUANT	0.00000E+000	Equil. Time (s)
IRCOMP	SELECTOR	0	IRComp
PFCOR	QUANT	5.00000E+001	PF Corr. (ohm)
SAMPLINGMODE	SELECTOR	1	Sampling Mode
EOC	QUANT	0.1104682	Open Circuit (V)
ELECTRODETYPE	SELECTOR	0	Electrode Type
STRIPPING	TOGGLE	F	Used for Stripping
SEQUENCER	TOGGLE	TRUE	Run as Sequence
PSTATMODEL	IQUANT	5	Pstat Model
PSTATSECTION	LABEL	REF3000-48128	Pstat Section
PSTATSERIALNO	LABEL	48128	Pstat Serial Number
CTRLMODE	IQUANT	1	Control Mode
ELECTROMETER	IQUANT	0	RE=0 or CS=1
IESTAB	IQUANT	2	I/E Stability
CASPEED	IQUANT	4	Control Amp Speed
CONVENTION	IQUANT	1	Current Convention
ICHRANGE	IQUANT	2	Ich Range
ICHRANGEMODE	TOGGLE	F	Ich Auto Range
ICHOFFSETENABLE	TOGGLE	F	Ich Offset Enable
ICHOFFSET	QUANT	0	Ich Offset (V)
ICHFILTER	IQUANT	3	Ich Filter
VCHRANGE	IQUANT	2	Vch Range
VCHRANGEMODE	TOGGLE	F	Vch Auto Range
VCHOFFSETENABLE	TOGGLE	F	Vch Offset Enable
VCHOFFSET	QUANT	0	Vch Offset (V)
VCHFILTER	IQUANT	3	Vch Filter
ACHRANGE	IQUANT	2	Ach Range
ACHOFFSETENABLE	TOGGLE	F	Ach Offset Enable
ACHOFFSET	QUANT	0	Ach Offset (V)
ACHFILTER	IQUANT	1	Ach Filter
IERANGELOWERLIMIT	IQUANT	2	I/E Range Lower Limit
IERANGEMODE	TOGGLE	T	I/E AutoRange
IERANGE	IQUANT	9	I/E Range
POSFEEDENABLE	TOGGLE	F	Positive Feedback IR Comp
POSFEEDRESISTANCE	QUANT	0	Positive Feedback Resistance (ohm)
ACHSELECT	IQUANT	4	Ach Select
SENSECABLEID	IQUANT	14	Sense Cable ID
PWRCABLEID	IQUANT	7	Power Cable ID
DCCALDATE	LABEL	8/16/2024	DC Calibration Date
ACCALDATE	LABEL	8/16/2024	AC Calibration Date
THERMOSELECT	IQUANT	1	Thermo Select
FRAMEWORKVERSION	LABEL	7.10.3	Framework Version
INSTRUMENTVERSION	LABEL	4.91	Instrument Version
COMMVERSION	LABEL	5.10	Communications Version
CPUPLDVERSION	LABEL	6.00	CPU PLD Version
CTRLPLDVERSION	LABEL	3.21	CTRL PLD Version
PSTATPLDVERSION	LABEL	0.00	PSTAT PLD Version
COMPLIANCEVOLTAGE	IQUANT	0	Compliance Voltage
CURVE1	TABLE
	Pt	T	Vf	Im	Vu	Sig	Ach	IERange	Over	Temp
	#	s	V vs. Ref.	A	V	V	V	#	bits	deg C
	0	0.5	1.10181E-001	4.00046E-004	0.00000E+000	1.10450E-001	-8.47214E-005	9	...........	-327.56
	44	22.5	1.54014E-001	1.04877E-002	0.00000E+000	1.54450E-001	-9.36881E-005	10	...........	-327.56
	88	44.5	1.97865E-001	1.88666E-002	0.00000E+000	1.98450E-001	-8.89548E-005	10	...........	-327.56
	132	66.5	2.42083E-001	2.79066E-002	0.00000E+000	2.42450E-001	-9.54548E-005	11	...........	-327.56
	176	88.5	2.86013E-001	3.78995E-002	0.00000E+000	2.86450E-001	-9.57548E-005	11	...........	-327.56
	220	110.5	3.29894E-001	5.08605E-002	0.00000E+000	3.30450E-001	-9.47881E-005	11	...........	-327.56
	264	132.5	3.73837E-001	4.00536E-002	0.00000E+000	3.74450E-001	-9.31214E-005	11	...........	-327.56
	308	154.5	4.17688E-001	2.16711E-002	0.00000E+000	4.18450E-001	-9.30881E-005	10	...........	-327.56
	352	176.5	4.61607E-001	2.17440E-002	0.00000E+000	4.62450E-001	-9.09548E-005	10	...........	-327.56
	396	198.5	5.05548E-001	2.37608E-002	0.00000E+000	5.06450E-001	-9.39881E-005	10	...........	-327.56
	440	220.5	5.49525E-001	2.40973E-002	0.00000E+000	5.50450E-001	-9.20548E-005	10	...........	-327.56
	484	242.5	5.93514E-001	2.36430E-002	0.00000E+000	5.94450E-001	-9.37214E-005	10	...........	-327.56
	528	264.5	6.37423E-001	2.32177E-002	0.00000E+000	6.38450E-001	-8.80548E-005	10	...........	-327.56
	572	286.5	6.81418E-001	2.26090E-002	0.00000E+000	6.82450E-001	-9.02881E-005	10	...........	-327.56
	616	308.5	7.25395E-001	2.18647E-002	0.00000E+000	7.26450E-001	-9.31548E-005	10	...........	-327.56
	660	330.5	7.69355E-001	2.12194E-002	0.00000E+000	7.70450E-001	-9.36881E-005	10	...........	-327.56
	704	352.5	8.13282E-001	2.06509E-002	0.00000E+000	8.14450E-001	-9.23881E-005	10	...........	-327.56
	748	374.5	8.57257E-001	2.04613E-002	0.00000E+000	8.58450E-001	-9.14214E-005	10	...........	-327.56
	792	396.5	9.01231E-001	2.09434E-002	0.00000E+000	9.02450E-001	-9.25214E-005	10	...........	-327.56
	836	418.5	9.45084E-001	2.30560E-002	0.00000E+000	9.46450E-001	-9.27214E-005	10	...........	-327.56
	880	440.5	9.89287E-001	2.95653E-002	0.00000E+000	9.90450E-001	-9.34548E-005	11	...........	-327.56
	924	462.5	1.03329E+000	4.02473E-002	0.00000E+000	1.03445E+000	-9.32214E-005	11	...........	-327.56
	968	484.5	1.07722E+000	5.05210E-002	0.00000E+000	1.07845E+000	-9.55548E-005	11	...........	-327.56
	1012	506.5	1.12117E+000	4.80362E-002	0.00000E+000	1.12245E+000	-9.38548E-005	11	...........	-327.56
	1056	528.5	1.16506E+000	4.64138E-002	0.00000E+000	1.16645E+000	-8.87214E-005	11	...........	-327.56
	1100	550.5	1.20907E+000	6.77423E-002	0.00000E+000	1.21045E+000	-9.24548E-005	11	...........	-327.56
	1144	572.5	1.25297E+000	1.05637E-001	0.00000E+000	1.25445E+000	-9.59214E-005	11	...........	-327.56
	1188	594.5	1.29680E+000	1.65937E-001	0.00000E+000	1.29845E+000	-9.40214E-005	11	...........	-327.56
	1232	616.5	1.34066E+000	2.52937E-001	0.00000E+000	1.34245E+000	-9.04548E-005	11	...........	-327.56
	1276	638.5	1.38480E+000	3.56238E-001	0.00000E+000	1.38645E+000	-9.53881E-005	12	...........	-327.56
	1320	660.5	1.42872E+000	4.74404E-001	0.00000E+000	1.43045E+000	-9.62881E-005	12	...........	-327.56
	1364	682.5	1.47252E+000	5.94683E-001	0.00000E+000	1.47445E+000	-9.16214E-005	12	...........	-327.56
	1408	704.5	1.51649E+000	7.14412E-001	0.00000E+000	1.51845E+000	-9.37214E-005	12	...........	-327.56
	1452	726.5	1.56031E+000	8.32906E-001	0.00000E+000	1.56245E+000	-9.57881E-005	12	...........	-327.56
	1496	748.5	1.60418E+000	9.48384E-001	0.00000E+000	1.60645E+000	-9.50214E-005	12	...........	-327.56
	1540	770.5	1.64814E+000	1.06071E+000	0.00000E+000	1.65045E+000	-9.35214E-005	12	...........	-327.56
	1584	792.5	1.69203E+000	1.17917E+000	0.00000E+000	1.69445E+000	-9.14214E-005	12	...........	-327.56
	1628	814.5	1.65807E+000	1.10192E+000	0.00000E+000	1.66045E+000	-9.34548E-005	12	...........	-327.56
	1672	836.5	1.61423E+000	1.00068E+000	0.00000E+000	1.61645E+000	-9.38214E-005	12	...........	-327.56
	1716	858.5	1.57031E+000	8.95546E-001	0.00000E+000	1.57245E+000	-9.34881E-005	12	...........	-327.56
	1760	880.5	1.52635E+000	7.88053E-001	0.00000E+000	1.52845E+000	-9.36214E-005	12	...........	-327.56
	1804	902.5	1.48251E+000	6.80100E-001	0.00000E+000	1.48445E+000	-9.21881E-005	12	...........	-327.56
	1848	924.5	1.43864E+000	5.78976E-001	0.00000E+000	1.44045E+000	-8.76214E-005	12	...........	-327.56
	1892	946.5	1.39471E+000	4.78132E-001	0.00000E+000	1.39645E+000	-9.35881E-005	12	...........	-327.56
	1936	968.5	1.35078E+000	3.83047E-001	0.00000E+000	1.35245E+000	-8.84881E-005	12	...........	-327.56
	1980	990.5	1.30696E+000	2.92449E-001	0.00000E+000	1.30845E+000	-9.44214E-005	12	...........	-327.56
[...]
	11425	5713	7.36062E-001	4.80871E-002	0.00000E+000	7.37000E-001	-9.64214E-005	11	...........	-327.56
	11453	5727	7.64063E-001	4.66696E-002	0.00000E+000	7.65000E-001	-9.79881E-005	11	...........	-327.56
	11481	5741	7.92041E-001	4.59137E-002	0.00000E+000	7.93000E-001	-1.00255E-004	11	...........	-327.56
	11509	5755	8.20006E-001	4.49629E-002	0.00000E+000	8.21000E-001	-9.14548E-005	11	...........	-327.56
	11537	5769	8.48016E-001	4.40151E-002	0.00000E+000	8.49000E-001	-9.80881E-005	11	...........	-327.56
	11565	5783	8.76003E-001	4.31638E-002	0.00000E+000	8.77000E-001	-9.49881E-005	11	...........	-327.56
	11593	5797	9.03991E-001	4.21979E-002	0.00000E+000	9.05000E-001	-9.66214E-005	11	...........	-327.56
	11621	5811	9.31941E-001	4.13123E-002	0.00000E+000	9.33000E-001	-9.37214E-005	11	...........	-327.56
	11649	5825	9.59923E-001	4.10311E-002	0.00000E+000	9.61000E-001	-9.55548E-005	11	...........	-327.56
	11677	5839	9.87811E-001	4.37658E-002	0.00000E+000	9.89000E-001	-9.92548E-005	11	...........	-327.56
	11705	5853	1.01589E+000	4.67573E-002	0.00000E+000	1.01700E+000	-9.40214E-005	11	...........	-327.56
	11733	5867	1.04378E+000	5.21155E-002	0.00000E+000	1.04500E+000	-9.64548E-005	11	...........	-327.56
	11761	5881	1.07180E+000	5.72633E-002	0.00000E+000	1.07300E+000	-9.80881E-005	11	...........	-327.56
	11789	5895	1.09974E+000	6.37130E-002	0.00000E+000	1.10100E+000	-9.78548E-005	11	...........	-327.56
	11817	5909	1.12769E+000	6.47751E-002	0.00000E+000	1.12900E+000	-9.68214E-005	11	...........	-327.56
	11845	5923	1.15570E+000	5.97492E-002	0.00000E+000	1.15700E+000	-9.90881E-005	11	...........	-327.56
	11873	5937	1.18368E+000	5.01699E-002	0.00000E+000	1.18500E+000	-9.26881E-005	11	...........	-327.56
	11901	5951	1.21169E+000	4.89152E-002	0.00000E+000	1.21300E+000	-9.59881E-005	11	...........	-327.56
	11929	5965	1.23966E+000	6.40156E-002	0.00000E+000	1.24100E+000	-9.79548E-005	11	...........	-327.56
	11957	5979	1.26747E+000	9.46885E-002	0.00000E+000	1.26900E+000	-9.72214E-005	11	...........	-327.56
	11985	5993	1.29541E+000	1.37315E-001	0.00000E+000	1.29700E+000	-9.51214E-005	11	...........	-327.56
	12013	6007	1.32332E+000	1.87855E-001	0.00000E+000	1.32500E+000	-9.67214E-005	11	...........	-327.56
	12041	6021	1.35116E+000	2.43305E-001	0.00000E+000	1.35300E+000	-9.33214E-005	11	...........	-327.56
	12069	6035	1.37940E+000	3.03839E-001	0.00000E+000	1.38100E+000	-9.63881E-005	12	...........	-327.56
	12097	6049	1.40734E+000	3.65051E-001	0.00000E+000	1.40900E+000	-1.01155E-004	12	...........	-327.56
	12125	6063	1.43529E+000	4.25851E-001	0.00000E+000	1.43700E+000	-1.01355E-004	12	...........	-327.56
	12153	6077	1.46323E+000	4.86015E-001	0.00000E+000	1.46500E+000	-9.75881E-005	12	...........	-327.56
	12181	6091	1.49117E+000	5.48532E-001	0.00000E+000	1.49300E+000	-9.76214E-005	12	...........	-327.56
	12209	6105	1.51913E+000	6.18278E-001	0.00000E+000	1.52100E+000	-9.55214E-005	12	...........	-327.56
	12237	6119	1.54703E+000	6.84763E-001	0.00000E+000	1.54900E+000	-9.61548E-005	12	...........	-327.56
	12265	6133	1.57487E+000	7.57999E-001	0.00000E+000	1.57700E+000	-9.71548E-005	12	...........	-327.56
	12293	6147	1.60280E+000	8.52330E-001	0.00000E+000	1.60500E+000	-9.36881E-005	12	...........	-327.56
	12321	6161	1.63076E+000	9.39321E-001	0.00000E+000	1.63300E+000	-9.90548E-005	12	...........	-327.56
	12349	6175	1.65866E+000	1.03265E+000	0.00000E+000	1.66100E+000	-9.45881E-005	12	...........	-327.56
	12377	6189	1.68663E+000	1.11165E+000	0.00000E+000	1.68900E+000	-9.70548E-005	12	...........	-327.56
	12388	6194.5	1.69761E+000	1.17132E+000	0.00000E+000	1.70000E+000	-1.00588E-004	12	...........	-327.56