Folder: ectools/testing/data (part 10)

File: 240902_17_MCL13_cswWE_CV20_750C_CO2.DTA
EXPLAIN
TAG	CV
TITLE	LABEL	Cyclic Voltammetry	Test Identifier
DATE	LABEL	9/3/2024	Date
TIME	LABEL	17:13:27	Time
NOTES	NOTES	5	Notes...
	cswWE - carbon steel wire
cspWE - carbon steel plate 2x2 tapered

Carbon steel plate counter electrode
Carbon steel wire reference electrode
PSTAT	PSTAT	REF3000-48128	Potentiostat
VINIT	POTEN	0.00000E+000	T	Initial E (V)
VLIMIT1	POTEN	1.70000E+000	F	Scan Limit 1 (V)
VLIMIT2	POTEN	-1.00000E+000	F	Scan Limit 2 (V)
VFINAL	POTEN	1.70000E+000	F	Final E (V)
SCANRATE	QUANT	2.00000E+001	Scan Rate (mV/s)
STEPSIZE	QUANT	1.00000E+000	Step Size (mV)
CYCLES	IQUANT	6	Cycles (#)
IMODE	SELECTOR	0	I/E Range Mode
IRANGE	QUANT	3.00000E-001	Max Current (mA)
AREA	QUANT	1.00000E+000	Sample Area (cm^2)
EQDELAY	QUANT	0.00000E+000	Equil. Time (s)
IRCOMP	SELECTOR	0	IRComp
PFCOR	QUANT	5.00000E+001	PF Corr. (ohm)
SAMPLINGMODE	SELECTOR	1	Sampling Mode
EOC	QUANT	0.2646424	Open Circuit (V)
ELECTRODETYPE	SELECTOR	0	Electrode Type
STRIPPING	TOGGLE	F	Used for Stripping
SEQUENCER	TOGGLE	TRUE	Run as Sequence
PSTATMODEL	IQUANT	5	Pstat Model
PSTATSECTION	LABEL	REF3000-48128	Pstat Section
PSTATSERIALNO	LABEL	48128	Pstat Serial Number
CTRLMODE	IQUANT	1	Control Mode
ELECTROMETER	IQUANT	0	RE=0 or CS=1
IESTAB	IQUANT	2	I/E Stability
CASPEED	IQUANT	4	Control Amp Speed
CONVENTION	IQUANT	1	Current Convention
ICHRANGE	IQUANT	2	Ich Range
ICHRANGEMODE	TOGGLE	F	Ich Auto Range
ICHOFFSETENABLE	TOGGLE	F	Ich Offset Enable
ICHOFFSET	QUANT	0	Ich Offset (V)
ICHFILTER	IQUANT	2	Ich Filter
VCHRANGE	IQUANT	2	Vch Range
VCHRANGEMODE	TOGGLE	F	Vch Auto Range
VCHOFFSETENABLE	TOGGLE	F	Vch Offset Enable
VCHOFFSET	QUANT	0	Vch Offset (V)
VCHFILTER	IQUANT	2	Vch Filter
ACHRANGE	IQUANT	2	Ach Range
ACHOFFSETENABLE	TOGGLE	F	Ach Offset Enable
ACHOFFSET	QUANT	0	Ach Offset (V)
ACHFILTER	IQUANT	1	Ach Filter
IERANGELOWERLIMIT	IQUANT	2	I/E Range Lower Limit
IERANGEMODE	TOGGLE	T	I/E AutoRange
IERANGE	IQUANT	9	I/E Range
POSFEEDENABLE	TOGGLE	F	Positive Feedback IR Comp
POSFEEDRESISTANCE	QUANT	0	Positive Feedback Resistance (ohm)
ACHSELECT	IQUANT	4	Ach Select
SENSECABLEID	IQUANT	14	Sense Cable ID
PWRCABLEID	IQUANT	7	Power Cable ID
DCCALDATE	LABEL	8/16/2024	DC Calibration Date
ACCALDATE	LABEL	8/16/2024	AC Calibration Date
THERMOSELECT	IQUANT	1	Thermo Select
FRAMEWORKVERSION	LABEL	7.10.3	Framework Version
INSTRUMENTVERSION	LABEL	4.91	Instrument Version
COMMVERSION	LABEL	5.10	Communications Version
CPUPLDVERSION	LABEL	6.00	CPU PLD Version
CTRLPLDVERSION	LABEL	3.21	CTRL PLD Version
PSTATPLDVERSION	LABEL	0.00	PSTAT PLD Version
COMPLIANCEVOLTAGE	IQUANT	0	Compliance Voltage
CURVE1	TABLE
	Pt	T	Vf	Im	Vu	Sig	Ach	IERange	Over	Temp
	#	s	V vs. Ref.	A	V	V	V	#	bits	deg C
	0	0.05	2.64209E-001	9.89234E-004	0.00000E+000	2.64650E-001	-1.05221E-004	9	...........	-327.56
	42	2.15	3.06172E-001	7.43727E-003	0.00000E+000	3.06650E-001	-1.06555E-004	10	...........	-327.56
	84	4.25	3.47942E-001	1.62325E-002	0.00000E+000	3.48650E-001	-1.04888E-004	10	...........	-327.56
	126	6.35	3.89927E-001	2.06953E-002	0.00000E+000	3.90650E-001	-1.14555E-004	10	...........	-327.56
	168	8.45	4.31945E-001	1.63808E-002	0.00000E+000	4.32650E-001	-1.11221E-004	10	...........	-327.56
	210	10.55	4.73901E-001	1.31666E-002	0.00000E+000	4.74650E-001	-1.09221E-004	10	...........	-327.56
	252	12.65	5.15928E-001	1.14115E-002	0.00000E+000	5.16650E-001	-1.04888E-004	10	...........	-327.56
	294	14.75	5.57880E-001	1.01813E-002	0.00000E+000	5.58650E-001	-1.13888E-004	10	...........	-327.56
	336	16.85	5.99931E-001	9.25064E-003	0.00000E+000	6.00650E-001	-1.15555E-004	10	...........	-327.56
	378	18.95	6.41882E-001	8.61936E-003	0.00000E+000	6.42650E-001	-1.03221E-004	10	...........	-327.56
	420	21.05	6.83801E-001	8.20477E-003	0.00000E+000	6.84650E-001	-1.02555E-004	10	...........	-327.56
	462	23.15	7.25811E-001	8.14822E-003	0.00000E+000	7.26650E-001	-1.15555E-004	10	...........	-327.56
	504	25.25	7.67766E-001	8.21042E-003	0.00000E+000	7.68650E-001	-1.13221E-004	10	...........	-327.56
	546	27.35	8.09642E-001	8.48065E-003	0.00000E+000	8.10650E-001	-1.20221E-004	10	...........	-327.56
	588	29.45	8.51675E-001	8.92877E-003	0.00000E+000	8.52650E-001	-1.27221E-004	10	...........	-327.56
	630	31.55	8.93597E-001	9.42982E-003	0.00000E+000	8.94650E-001	-1.16888E-004	10	...........	-327.56
	672	33.65	9.35465E-001	1.01621E-002	0.00000E+000	9.36650E-001	-1.25888E-004	10	...........	-327.56
	714	35.75	9.77527E-001	1.12722E-002	0.00000E+000	9.78650E-001	-1.26888E-004	10	...........	-327.56
	756	37.85	1.01944E+000	1.30334E-002	0.00000E+000	1.02065E+000	-1.29555E-004	10	...........	-327.56
	798	39.95	1.06142E+000	1.57364E-002	0.00000E+000	1.06265E+000	-1.19555E-004	10	...........	-327.56
	840	42.05	1.10331E+000	1.95908E-002	0.00000E+000	1.10465E+000	-1.30221E-004	10	...........	-327.56
	882	44.15	1.14514E+000	2.51165E-002	0.00000E+000	1.14665E+000	-1.16555E-004	10	...........	-327.56
	924	46.25	1.18743E+000	3.45742E-002	0.00000E+000	1.18865E+000	-1.19555E-004	11	...........	-327.56
	966	48.35	1.22936E+000	5.00788E-002	0.00000E+000	1.23065E+000	-1.27221E-004	11	...........	-327.56
	1008	50.45	1.27125E+000	7.16890E-002	0.00000E+000	1.27265E+000	-1.10555E-004	11	...........	-327.56
	1050	52.55	1.31324E+000	1.00047E-001	0.00000E+000	1.31465E+000	-1.18221E-004	11	...........	-327.56
	1092	54.65	1.35512E+000	1.32166E-001	0.00000E+000	1.35665E+000	-1.16221E-004	11	...........	-327.56
	1134	56.75	1.39695E+000	1.68175E-001	0.00000E+000	1.39865E+000	-1.20888E-004	11	...........	-327.56
	1176	58.85	1.43891E+000	2.13849E-001	0.00000E+000	1.44065E+000	-1.18555E-004	11	...........	-327.56
	1218	60.95	1.48076E+000	2.64618E-001	0.00000E+000	1.48265E+000	-1.06221E-004	11	...........	-327.56
	1260	63.05	1.52304E+000	3.13025E-001	0.00000E+000	1.52465E+000	-1.19555E-004	12	...........	-327.56
	1302	65.15	1.56493E+000	3.62343E-001	0.00000E+000	1.56665E+000	-1.29555E-004	12	...........	-327.56
	1344	67.25	1.60681E+000	4.12647E-001	0.00000E+000	1.60865E+000	-1.12888E-004	12	...........	-327.56
	1386	69.35	1.64877E+000	4.74316E-001	0.00000E+000	1.65065E+000	-1.25221E-004	12	...........	-327.56
	1428	71.45	1.69070E+000	5.27141E-001	0.00000E+000	1.69265E+000	-1.21888E-004	12	...........	-327.56
	1470	73.55	1.66271E+000	5.08321E-001	0.00000E+000	1.66465E+000	-1.19888E-004	12	...........	-327.56
	1512	75.65	1.62083E+000	4.57660E-001	0.00000E+000	1.62265E+000	-1.25888E-004	12	...........	-327.56
	1554	77.75	1.57884E+000	4.11492E-001	0.00000E+000	1.58065E+000	-1.27555E-004	12	...........	-327.56
	1596	79.85	1.53692E+000	3.64773E-001	0.00000E+000	1.53865E+000	-1.24555E-004	12	...........	-327.56
	1638	81.95	1.49504E+000	3.14238E-001	0.00000E+000	1.49665E+000	-1.16221E-004	12	...........	-327.56
	1680	84.05	1.45306E+000	2.65851E-001	0.00000E+000	1.45465E+000	-1.23888E-004	12	...........	-327.56
	1722	86.15	1.41094E+000	2.18706E-001	0.00000E+000	1.41265E+000	-1.19221E-004	11	...........	-327.56
	1764	88.25	1.36903E+000	1.74784E-001	0.00000E+000	1.37065E+000	-1.11555E-004	11	...........	-327.56
	1806	90.35	1.32713E+000	1.33007E-001	0.00000E+000	1.32865E+000	-1.24221E-004	11	...........	-327.56
	1848	92.45	1.28526E+000	9.55343E-002	0.00000E+000	1.28665E+000	-1.20888E-004	11	...........	-327.56
	1890	94.55	1.24328E+000	6.19735E-002	0.00000E+000	1.24465E+000	-1.32221E-004	11	...........	-327.56
[...]
	32876	1643.85	7.40167E-001	2.52415E-002	0.00000E+000	7.41000E-001	-1.23221E-004	11	...........	-327.56
	32905	1645.3	7.68970E-001	1.86034E-002	0.00000E+000	7.70000E-001	-1.20888E-004	10	...........	-327.56
	32934	1646.75	7.98013E-001	1.50800E-002	0.00000E+000	7.99000E-001	-1.17555E-004	10	...........	-327.56
	32963	1648.2	8.26985E-001	1.36008E-002	0.00000E+000	8.28000E-001	-1.20888E-004	10	...........	-327.56
	32992	1649.65	8.55981E-001	1.29370E-002	0.00000E+000	8.57000E-001	-1.21555E-004	10	...........	-327.56
	33021	1651.1	8.84864E-001	1.28964E-002	0.00000E+000	8.86000E-001	-1.24888E-004	10	...........	-327.56
	33050	1652.55	9.13887E-001	1.28464E-002	0.00000E+000	9.15000E-001	-1.16555E-004	10	...........	-327.56
	33079	1654	9.42812E-001	1.30098E-002	0.00000E+000	9.44000E-001	-1.14555E-004	10	...........	-327.56
	33108	1655.45	9.71825E-001	1.33996E-002	0.00000E+000	9.73000E-001	-1.17888E-004	10	...........	-327.56
	33137	1656.9	1.00081E+000	1.39909E-002	0.00000E+000	1.00200E+000	-1.19888E-004	10	...........	-327.56
	33166	1658.35	1.02979E+000	1.51898E-002	0.00000E+000	1.03100E+000	-1.11888E-004	10	...........	-327.56
	33195	1659.8	1.05872E+000	1.72837E-002	0.00000E+000	1.06000E+000	-1.23888E-004	10	...........	-327.56
	33224	1661.25	1.08767E+000	2.07120E-002	0.00000E+000	1.08900E+000	-1.21221E-004	10	...........	-327.56
	33253	1662.7	1.11656E+000	2.58427E-002	0.00000E+000	1.11800E+000	-1.17888E-004	10	...........	-327.56
	33282	1664.15	1.14576E+000	3.31060E-002	0.00000E+000	1.14700E+000	-1.27221E-004	11	...........	-327.56
	33311	1665.6	1.17472E+000	4.27218E-002	0.00000E+000	1.17600E+000	-1.12888E-004	11	...........	-327.56
	33340	1667.05	1.20368E+000	5.38223E-002	0.00000E+000	1.20500E+000	-1.25221E-004	11	...........	-327.56
	33369	1668.5	1.23269E+000	6.70514E-002	0.00000E+000	1.23400E+000	-1.25221E-004	11	...........	-327.56
	33398	1669.95	1.26164E+000	8.17778E-002	0.00000E+000	1.26300E+000	-1.14221E-004	11	...........	-327.56
	33427	1671.4	1.29061E+000	9.89698E-002	0.00000E+000	1.29200E+000	-1.21555E-004	11	...........	-327.56
	33456	1672.85	1.31946E+000	1.17657E-001	0.00000E+000	1.32100E+000	-1.19555E-004	11	...........	-327.56
	33485	1674.3	1.34841E+000	1.36456E-001	0.00000E+000	1.35000E+000	-1.23555E-004	11	...........	-327.56
	33514	1675.75	1.37742E+000	1.57364E-001	0.00000E+000	1.37900E+000	-1.23888E-004	11	...........	-327.56
	33543	1677.2	1.40633E+000	1.78736E-001	0.00000E+000	1.40800E+000	-1.27888E-004	11	...........	-327.56
	33572	1678.65	1.43526E+000	2.04015E-001	0.00000E+000	1.43700E+000	-1.17555E-004	11	...........	-327.56
	33601	1680.1	1.46423E+000	2.28341E-001	0.00000E+000	1.46600E+000	-1.25221E-004	11	...........	-327.56
	33630	1681.55	1.49317E+000	2.52853E-001	0.00000E+000	1.49500E+000	-1.18555E-004	11	...........	-327.56
	33659	1683	1.52241E+000	2.77866E-001	0.00000E+000	1.52400E+000	-1.10221E-004	12	...........	-327.56
	33688	1684.45	1.55122E+000	3.01243E-001	0.00000E+000	1.55300E+000	-1.12555E-004	12	...........	-327.56
	33717	1685.9	1.58023E+000	3.23508E-001	0.00000E+000	1.58200E+000	-1.24888E-004	12	...........	-327.56
	33746	1687.35	1.60922E+000	3.45688E-001	0.00000E+000	1.61100E+000	-1.27221E-004	12	...........	-327.56
	33775	1688.8	1.63822E+000	3.76231E-001	0.00000E+000	1.64000E+000	-1.27888E-004	12	...........	-327.56
	33804	1690.25	1.66719E+000	4.00057E-001	0.00000E+000	1.66900E+000	-1.21221E-004	12	...........	-327.56
	33833	1691.7	1.69610E+000	4.86385E-001	0.00000E+000	1.69800E+000	-1.34221E-004	12	...........	-327.56
	33835	1691.8	1.69810E+000	4.77073E-001	0.00000E+000	1.70000E+000	-1.25555E-004	12	...........	-327.56

File: 240902_18_MCL13_cswWE_CV50_750C_CO2.DTA
EXPLAIN
TAG	CV
TITLE	LABEL	Cyclic Voltammetry	Test Identifier
DATE	LABEL	9/3/2024	Date
TIME	LABEL	17:42:40	Time
NOTES	NOTES	5	Notes...
	cswWE - carbon steel wire
cspWE - carbon steel plate 2x2 tapered

Carbon steel plate counter electrode
Carbon steel wire reference electrode
PSTAT	PSTAT	REF3000-48128	Potentiostat
VINIT	POTEN	0.00000E+000	T	Initial E (V)
VLIMIT1	POTEN	1.70000E+000	F	Scan Limit 1 (V)
VLIMIT2	POTEN	-1.00000E+000	F	Scan Limit 2 (V)
VFINAL	POTEN	1.70000E+000	F	Final E (V)
SCANRATE	QUANT	4.99999E+001	Scan Rate (mV/s)
STEPSIZE	QUANT	1.00000E+000	Step Size (mV)
CYCLES	IQUANT	6	Cycles (#)
IMODE	SELECTOR	0	I/E Range Mode
IRANGE	QUANT	3.00000E-001	Max Current (mA)
AREA	QUANT	1.00000E+000	Sample Area (cm^2)
EQDELAY	QUANT	0.00000E+000	Equil. Time (s)
IRCOMP	SELECTOR	0	IRComp
PFCOR	QUANT	5.00000E+001	PF Corr. (ohm)
SAMPLINGMODE	SELECTOR	1	Sampling Mode
EOC	QUANT	0.1485671	Open Circuit (V)
ELECTRODETYPE	SELECTOR	0	Electrode Type
STRIPPING	TOGGLE	F	Used for Stripping
SEQUENCER	TOGGLE	TRUE	Run as Sequence
PSTATMODEL	IQUANT	5	Pstat Model
PSTATSECTION	LABEL	REF3000-48128	Pstat Section
PSTATSERIALNO	LABEL	48128	Pstat Serial Number
CTRLMODE	IQUANT	1	Control Mode
ELECTROMETER	IQUANT	0	RE=0 or CS=1
IESTAB	IQUANT	2	I/E Stability
CASPEED	IQUANT	4	Control Amp Speed
CONVENTION	IQUANT	1	Current Convention
ICHRANGE	IQUANT	2	Ich Range
ICHRANGEMODE	TOGGLE	F	Ich Auto Range
ICHOFFSETENABLE	TOGGLE	F	Ich Offset Enable
ICHOFFSET	QUANT	0	Ich Offset (V)
ICHFILTER	IQUANT	2	Ich Filter
VCHRANGE	IQUANT	2	Vch Range
VCHRANGEMODE	TOGGLE	F	Vch Auto Range
VCHOFFSETENABLE	TOGGLE	F	Vch Offset Enable
VCHOFFSET	QUANT	0	Vch Offset (V)
VCHFILTER	IQUANT	2	Vch Filter
ACHRANGE	IQUANT	2	Ach Range
ACHOFFSETENABLE	TOGGLE	F	Ach Offset Enable
ACHOFFSET	QUANT	0	Ach Offset (V)
ACHFILTER	IQUANT	1	Ach Filter
IERANGELOWERLIMIT	IQUANT	2	I/E Range Lower Limit
IERANGEMODE	TOGGLE	T	I/E AutoRange
IERANGE	IQUANT	9	I/E Range
POSFEEDENABLE	TOGGLE	F	Positive Feedback IR Comp
POSFEEDRESISTANCE	QUANT	0	Positive Feedback Resistance (ohm)
ACHSELECT	IQUANT	4	Ach Select
SENSECABLEID	IQUANT	14	Sense Cable ID
PWRCABLEID	IQUANT	7	Power Cable ID
DCCALDATE	LABEL	8/16/2024	DC Calibration Date
ACCALDATE	LABEL	8/16/2024	AC Calibration Date
THERMOSELECT	IQUANT	1	Thermo Select
FRAMEWORKVERSION	LABEL	7.10.3	Framework Version
INSTRUMENTVERSION	LABEL	4.91	Instrument Version
COMMVERSION	LABEL	5.10	Communications Version
CPUPLDVERSION	LABEL	6.00	CPU PLD Version
CTRLPLDVERSION	LABEL	3.21	CTRL PLD Version
PSTATPLDVERSION	LABEL	0.00	PSTAT PLD Version
COMPLIANCEVOLTAGE	IQUANT	0	Compliance Voltage
CURVE1	TABLE
	Pt	T	Vf	Im	Vu	Sig	Ach	IERange	Over	Temp
	#	s	V vs. Ref.	A	V	V	V	#	bits	deg C
	0	0.02	1.48254E-001	1.18777E-004	0.00000E+000	1.48550E-001	-9.62214E-005	9	...........	-327.56
	44	0.9	1.91987E-001	2.30332E-003	0.00000E+000	1.92550E-001	-1.09555E-004	9	...........	-327.56
	88	1.78	2.36177E-001	5.89499E-003	0.00000E+000	2.36550E-001	-1.11221E-004	10	...........	-327.56
	132	2.66	2.80023E-001	1.18126E-002	0.00000E+000	2.80550E-001	-8.87214E-005	10	...........	-327.56
	176	3.54	3.23825E-001	1.88101E-002	0.00000E+000	3.24550E-001	-1.07055E-004	10	...........	-327.56
	220	4.42	3.68056E-001	2.78294E-002	0.00000E+000	3.68550E-001	-9.78881E-005	11	...........	-327.56
	264	5.3	4.12016E-001	3.37672E-002	0.00000E+000	4.12550E-001	-1.10388E-004	11	...........	-327.56
	308	6.18	4.55977E-001	2.93435E-002	0.00000E+000	4.56550E-001	-9.37214E-005	11	...........	-327.56
	352	7.06	4.99896E-001	2.52065E-002	0.00000E+000	5.00550E-001	-8.37214E-005	11	...........	-327.56
	396	7.94	5.43692E-001	2.29567E-002	0.00000E+000	5.44550E-001	-7.12214E-005	10	...........	-327.56
	440	8.82	5.87619E-001	2.14356E-002	0.00000E+000	5.88550E-001	-9.12214E-005	10	...........	-327.56
	484	9.7	6.31598E-001	1.96806E-002	0.00000E+000	6.32550E-001	-1.03721E-004	10	...........	-327.56
	528	10.58	6.75661E-001	1.82520E-002	0.00000E+000	6.76550E-001	-9.37214E-005	10	...........	-327.56
	572	11.46	7.19561E-001	1.69800E-002	0.00000E+000	7.20550E-001	-1.06221E-004	10	...........	-327.56
	616	12.34	7.63538E-001	1.54780E-002	0.00000E+000	7.64550E-001	-1.02055E-004	10	...........	-327.56
	660	13.22	8.07491E-001	1.36554E-002	0.00000E+000	8.08550E-001	-1.13721E-004	10	...........	-327.56
	704	14.1	8.51555E-001	1.14070E-002	0.00000E+000	8.52550E-001	-9.70548E-005	10	...........	-327.56
	748	14.98	8.95493E-001	9.78443E-003	0.00000E+000	8.96550E-001	-1.03721E-004	10	...........	-327.56
	792	15.86	9.39425E-001	9.20628E-003	0.00000E+000	9.40550E-001	-1.02888E-004	10	...........	-327.56
	836	16.74	9.83442E-001	9.36709E-003	0.00000E+000	9.84550E-001	-7.28881E-005	10	...........	-327.56
	880	17.62	1.02739E+000	1.03482E-002	0.00000E+000	1.02855E+000	-1.11221E-004	10	...........	-327.56
	924	18.5	1.07130E+000	1.28743E-002	0.00000E+000	1.07255E+000	-1.12055E-004	10	...........	-327.56
	968	19.38	1.11515E+000	1.78774E-002	0.00000E+000	1.11655E+000	-1.03721E-004	10	...........	-327.56
	1012	20.26	1.15936E+000	2.75976E-002	0.00000E+000	1.16055E+000	-1.06221E-004	11	...........	-327.56
	1056	21.14	1.20325E+000	4.29497E-002	0.00000E+000	1.20455E+000	-1.09555E-004	11	...........	-327.56
	1100	22.02	1.24717E+000	6.38312E-002	0.00000E+000	1.24855E+000	-1.07055E-004	11	...........	-327.56
	1144	22.9	1.29118E+000	8.87602E-002	0.00000E+000	1.29255E+000	-1.09555E-004	11	...........	-327.56
	1188	23.78	1.33505E+000	1.16865E-001	0.00000E+000	1.33655E+000	-9.70548E-005	11	...........	-327.56
	1232	24.66	1.37898E+000	1.49133E-001	0.00000E+000	1.38055E+000	-1.21221E-004	11	...........	-327.56
	1276	25.54	1.42282E+000	1.82318E-001	0.00000E+000	1.42455E+000	-1.13721E-004	11	...........	-327.56
	1320	26.42	1.46679E+000	2.20158E-001	0.00000E+000	1.46855E+000	-1.13721E-004	11	...........	-327.56
	1364	27.3	1.51068E+000	2.58306E-001	0.00000E+000	1.51255E+000	-1.07888E-004	11	...........	-327.56
	1408	28.18	1.55482E+000	2.99975E-001	0.00000E+000	1.55655E+000	-1.14555E-004	12	...........	-327.56
	1452	29.06	1.59883E+000	3.38731E-001	0.00000E+000	1.60055E+000	-1.18721E-004	12	...........	-327.56
	1496	29.94	1.64276E+000	3.76043E-001	0.00000E+000	1.64455E+000	-1.07055E-004	12	...........	-327.56
	1540	30.82	1.68667E+000	4.24349E-001	0.00000E+000	1.68855E+000	-1.18721E-004	12	...........	-327.56
	1584	31.7	1.66468E+000	4.05413E-001	0.00000E+000	1.66655E+000	-1.17888E-004	12	...........	-327.56
	1628	32.58	1.62080E+000	3.58383E-001	0.00000E+000	1.62255E+000	-1.17888E-004	12	...........	-327.56
	1672	33.46	1.57675E+000	3.20506E-001	0.00000E+000	1.57855E+000	-1.05388E-004	12	...........	-327.56
	1716	34.34	1.53292E+000	2.77945E-001	0.00000E+000	1.53455E+000	-1.16221E-004	12	...........	-327.56
	1760	35.22	1.48899E+000	2.42034E-001	0.00000E+000	1.49055E+000	-1.27055E-004	12	...........	-327.56
	1804	36.1	1.44483E+000	2.06527E-001	0.00000E+000	1.44655E+000	-1.20388E-004	11	...........	-327.56
	1848	36.98	1.40084E+000	1.73564E-001	0.00000E+000	1.40255E+000	-1.26221E-004	11	...........	-327.56
	1892	37.86	1.35697E+000	1.40504E-001	0.00000E+000	1.35855E+000	-1.02888E-004	11	...........	-327.56
	1936	38.74	1.31311E+000	1.10716E-001	0.00000E+000	1.31455E+000	-1.20388E-004	11	...........	-327.56
	1980	39.62	1.26909E+000	8.40954E-002	0.00000E+000	1.27055E+000	-1.06221E-004	11	...........	-327.56
[...]
	33016	660.34	7.63983E-001	1.46093E-002	0.00000E+000	7.65000E-001	-1.10388E-004	10	...........	-327.56
	33044	660.9	7.91998E-001	1.29712E-002	0.00000E+000	7.93000E-001	-1.18721E-004	10	...........	-327.56
	33072	661.46	8.19988E-001	1.14584E-002	0.00000E+000	8.21000E-001	-1.14555E-004	10	...........	-327.56
	33100	662.02	8.48026E-001	1.05982E-002	0.00000E+000	8.49000E-001	-1.13721E-004	10	...........	-327.56
	33128	662.58	8.75982E-001	1.00650E-002	0.00000E+000	8.77000E-001	-1.01221E-004	10	...........	-327.56
	33156	663.14	9.03972E-001	1.00423E-002	0.00000E+000	9.05000E-001	-1.15388E-004	10	...........	-327.56
	33184	663.7	9.31937E-001	1.00724E-002	0.00000E+000	9.33000E-001	-1.10388E-004	10	...........	-327.56
	33212	664.26	9.59902E-001	1.01293E-002	0.00000E+000	9.61000E-001	-9.78881E-005	10	...........	-327.56
	33240	664.82	9.87801E-001	9.91522E-003	0.00000E+000	9.89000E-001	-1.11221E-004	10	...........	-327.56
	33268	665.38	1.01589E+000	1.03583E-002	0.00000E+000	1.01700E+000	-1.07055E-004	10	...........	-327.56
	33296	665.94	1.04377E+000	1.05343E-002	0.00000E+000	1.04500E+000	-1.12888E-004	10	...........	-327.56
	33324	666.5	1.07179E+000	1.09175E-002	0.00000E+000	1.07300E+000	-1.17055E-004	10	...........	-327.56
	33352	667.06	1.09975E+000	1.16699E-002	0.00000E+000	1.10100E+000	-1.17055E-004	10	...........	-327.56
	33380	667.62	1.12768E+000	1.29080E-002	0.00000E+000	1.12900E+000	-1.07888E-004	10	...........	-327.56
	33408	668.18	1.15566E+000	1.46845E-002	0.00000E+000	1.15700E+000	-9.62214E-005	10	...........	-327.56
	33436	668.74	1.18360E+000	1.74740E-002	0.00000E+000	1.18500E+000	-9.70548E-005	10	...........	-327.56
	33464	669.3	1.21155E+000	2.12276E-002	0.00000E+000	1.21300E+000	-1.07888E-004	10	...........	-327.56
	33492	669.86	1.23975E+000	2.71229E-002	0.00000E+000	1.24100E+000	-1.21221E-004	11	...........	-327.56
	33520	670.42	1.26764E+000	3.51861E-002	0.00000E+000	1.26900E+000	-1.17055E-004	11	...........	-327.56
	33548	670.98	1.29562E+000	4.49030E-002	0.00000E+000	1.29700E+000	-1.06221E-004	11	...........	-327.56
	33576	671.54	1.32361E+000	5.62180E-002	0.00000E+000	1.32500E+000	-1.28721E-004	11	...........	-327.56
	33604	672.1	1.35152E+000	6.78816E-002	0.00000E+000	1.35300E+000	-1.15388E-004	11	...........	-327.56
	33632	672.66	1.37951E+000	8.05610E-002	0.00000E+000	1.38100E+000	-1.05388E-004	11	...........	-327.56
	33660	673.22	1.40745E+000	9.40890E-002	0.00000E+000	1.40900E+000	-1.06221E-004	11	...........	-327.56
	33688	673.78	1.43543E+000	1.08037E-001	0.00000E+000	1.43700E+000	-1.09555E-004	11	...........	-327.56
	33716	674.34	1.46341E+000	1.22479E-001	0.00000E+000	1.46500E+000	-1.19555E-004	11	...........	-327.56
	33744	674.9	1.49135E+000	1.36799E-001	0.00000E+000	1.49300E+000	-1.10388E-004	11	...........	-327.56
	33772	675.46	1.51932E+000	1.52458E-001	0.00000E+000	1.52100E+000	-1.17888E-004	11	...........	-327.56
	33800	676.02	1.54725E+000	1.66910E-001	0.00000E+000	1.54900E+000	-1.03721E-004	11	...........	-327.56
	33828	676.58	1.57507E+000	1.81658E-001	0.00000E+000	1.57700E+000	-1.09555E-004	11	...........	-327.56
	33856	677.14	1.60312E+000	1.95780E-001	0.00000E+000	1.60500E+000	-1.07888E-004	11	...........	-327.56
	33884	677.7	1.63109E+000	2.09678E-001	0.00000E+000	1.63300E+000	-1.15388E-004	11	...........	-327.56
	33912	678.26	1.65907E+000	2.23661E-001	0.00000E+000	1.66100E+000	-1.22888E-004	11	...........	-327.56
	33940	678.82	1.68696E+000	2.40450E-001	0.00000E+000	1.68900E+000	-1.01221E-004	11	...........	-327.56
	33951	679.04	1.69800E+000	2.46052E-001	0.00000E+000	1.70000E+000	-1.01221E-004	11	...........	-327.56